millis,bmetemp(*C),bmepres(Pa),bmehum(%),bmegas_res(KOhm),bmealt(m),accX (mg),accY (mg),accZ (mg),gyrX (deg/sec),gyrY (deg/sec),gyrZ (deg/sec),magX(uT),magY(uT),magZ(uT),ozone concentration,
2635,22.94915,95181,17.47613,38.28300,524.39362,-8.36292,-2.11047,4.72343,0.00367,-0.02169,-0.00916,-21.82111,5.30547,-23.64806,0,
3979,22.97187,95184,17.34113,40.18400,524.30640,-8.53520,-2.22533,4.95314,0.10201,-0.06384,0.04459,-21.58726,5.26162,-23.96960,0,
5324,22.86680,95185,17.27019,42.41200,524.12939,-8.43470,-3.50309,4.61576,0.10201,0.02688,0.07758,-23.48729,10.56709,-23.86729,0,
6733,22.80780,95186,17.18659,44.10200,524.12939,-9.62633,-2.06022,3.68973,0.00641,-0.18295,0.20220,-27.55042,5.01315,-19.02952,0,
8079,22.82105,95187,17.11684,45.93100,524.04218,-9.98525,0.00718,1.12702,-0.28191,-0.30574,-0.25931,-31.40895,-4.26776,-9.52938,0,
9424,22.85639,95187,17.04825,47.64700,523.95502,-8.98026,0.31585,-2.23968,-0.08552,-0.11057,-0.34453,-32.66589,-11.40018,5.94855,0,
10770,22.89394,95188,17.00493,48.92300,523.86780,-6.88415,1.57926,-7.31486,-0.64477,0.31215,0.71929,-19.99415,-17.99182,34.25899,0,
12120,22.92612,95191,16.93623,50.29900,523.60620,-7.60200,-1.10548,-5.49871,0.06964,0.06506,-0.02260,-27.95966,-5.51008,39.15522,0,
13464,22.95799,95193,16.87257,51.72300,523.42920,-8.09013,-1.28495,-6.15195,-0.48045,0.17379,0.42913,-30.47355,-2.98158,35.95440,0,
14810,22.98733,95194,16.81382,53.06100,523.42920,-7.59482,-5.59203,-3.11545,0.10415,0.01833,-0.02657,-35.93978,17.12949,34.66822,0,
16156,23.01258,95193,16.75489,53.94700,523.42920,-7.93939,-4.73779,-3.12981,0.10904,-0.13836,-0.05620,-34.34668,10.30400,35.53055,0,
17510,23.02961,95193,16.68053,55.40400,523.42920,-7.77428,-4.30708,-4.18505,0.12584,0.01863,0.02199,-33.01666,9.77784,38.29290,0,
18855,23.05359,95194,16.61158,56.48400,523.34198,-8.08295,-4.33579,-4.45783,-0.04062,-0.13164,-0.08583,-33.16282,10.14323,37.67904,0,
20201,23.07694,95193,16.54263,57.64600,523.42920,-7.21436,-5.24746,-3.61077,0.59834,-0.25931,-0.33078,-31.39433,14.10406,39.22829,0,
21548,23.09903,95193,16.48365,58.65200,523.51636,-7.42971,-5.19721,-4.11326,-0.20342,0.00733,0.05528,-30.99971,14.76177,40.96755,0,
22895,23.11860,95194,16.42958,60.46600,523.51636,-6.82672,-5.70688,-3.28056,0.07880,0.02321,-0.04520,-33.16282,19.26337,38.07366,0,
24241,23.13942,95192,16.36559,60.50900,523.51636,-7.06361,-5.80020,-3.15853,-0.06292,0.13744,-0.07605,-31.51125,18.45951,39.22829,1,
25585,23.16088,95192,16.31666,61.43800,523.60620,-7.41536,-6.14477,-2.87857,-0.26420,-0.12523,0.20556,-32.19819,19.83338,38.16135,2,
26988,23.15488,95193,16.27139,61.93600,523.51636,-1.45005,-9.13101,4.07019,-0.17776,-0.05406,0.05192,-23.31190,48.37767,2.26542,2,
28335,23.17634,95193,16.26745,62.25700,523.42920,-4.22812,-8.95155,0.66760,0.13470,0.31948,0.22388,-24.29114,48.36305,20.91494,3,
29684,23.20284,95193,16.28374,63.14600,523.42920,0.74656,-10.77488,0.76810,-0.06353,-0.70891,-0.38820,-8.34551,52.86466,29.90354,4,
31030,23.22777,95195,16.31996,63.91400,523.42920,-10.33699,-3.34517,0.01436,0.02779,-0.33170,-0.41325,-38.65829,7.08857,23.96960,5,
32379,23.24891,95194,16.33599,65.61000,523.42920,-9.61197,-1.68694,-2.11047,-0.03238,0.08369,-0.13714,-33.38205,0.54078,33.07512,6,
33725,23.26847,95194,16.36196,65.35500,523.51636,-7.94656,-1.88076,-1.57208,-0.65088,-0.54336,0.32803,-37.07980,-2.57235,20.60801,7,
35072,23.28993,95193,16.36802,67.12900,523.60620,-9.97089,-1.40698,-0.13639,0.15638,0.04856,0.08674,-36.29056,-2.14849,22.69804,8,
36417,23.31044,95192,16.37404,67.88800,523.51636,-9.09512,-0.08614,-0.87577,-0.11057,-0.59101,0.28436,-35.04823,-7.32242,22.63958,9,
37765,23.33095,95192,16.38506,68.89000,523.51636,-9.76272,-1.48594,1.25623,0.28619,0.29260,-0.18387,-38.26367,-1.44695,17.42181,10,
39111,23.34956,95193,16.37097,69.05900,523.51636,-9.92782,-0.61017,0.76092,0.06811,0.02932,-0.07911,-36.83134,-4.22391,18.76644,11,
40458,23.36818,95194,16.35688,70.03800,523.42920,-9.98525,-0.71067,0.29432,0.14722,0.18448,-0.22113,-37.21134,-1.87080,21.51418,12,
41807,23.38490,95194,16.31770,71.28500,523.42920,-9.94218,-0.69631,1.14855,0.09224,0.08308,-0.05651,-36.55364,-4.54545,17.59719,13,
43157,23.40194,95194,16.28354,72.14100,523.42920,-10.02114,-1.84487,-0.61735,0.07239,-0.05315,-0.03115,-37.00673,-0.02923,24.01345,14,
44503,23.42371,95194,16.23962,72.95500,523.51636,-10.01396,-1.57208,-0.24407,-0.11454,-0.16310,0.09591,-37.13826,-0.45308,23.45805,15,
45848,23.44422,95194,16.19066,73.20900,523.51636,-9.90629,-1.40698,0.41635,0.02382,0.00641,0.02871,-37.05057,-1.46156,22.53727,16,
47195,23.46442,95192,16.15169,73.85300,523.51636,-9.89911,-1.21316,0.23689,-0.19059,-0.27733,0.23702,-36.72903,-1.14002,22.55189,17,
48600,23.45527,95193,16.09133,73.40100,523.51636,-9.81297,-0.96191,1.16291,-0.22113,-0.35247,0.15119,-36.88980,-3.96083,17.61181,18,
49946,23.47483,95192,16.05734,75.24100,523.51636,-9.87039,-0.98345,0.95474,0.01802,-0.02169,-0.01833,-36.78749,-3.82929,19.00029,19,
51292,23.50480,95192,16.02886,75.64700,523.60620,-9.97089,-1.00499,0.61017,-0.05834,-0.09316,-0.00794,-36.68518,-3.17159,20.79801,19,
52638,23.53099,95192,15.99521,76.40300,523.51636,-9.75554,-1.14855,0.39482,-0.11790,-0.21625,0.14752,-37.15288,-2.32388,20.65186,20,
53992,23.54677,95192,15.95109,76.96300,523.51636,-10.43749,-0.83270,-0.59581,0.22846,0.04337,-0.27703,-36.56825,-1.02309,24.53961,20,
55337,23.56602,95192,15.92211,77.67400,523.69342,-9.94218,-0.48096,1.53619,0.02077,-0.02046,-0.02016,-35.93978,-6.75241,13.13943,20,
56683,23.58684,95191,15.87327,78.54500,523.78058,-9.91346,-1.35673,0.93320,-0.02107,-0.36163,0.09774,-35.51593,-6.40164,13.31482,20,
58030,23.60704,95191,15.84933,78.76600,523.69342,-9.94218,-1.48594,0.52403,-0.04307,0.00367,0.04429,-37.06519,-2.38234,19.89184,20,
59378,23.62471,95191,15.81032,79.51100,523.69342,-9.87757,-2.20379,-0.05025,-0.09835,-0.12553,0.15211,-37.34288,1.30079,22.39111,20,
60725,23.64490,95191,15.76647,79.81300,523.78058,-9.80579,-1.93819,0.40917,0.14478,0.04398,-0.18051,-37.81058,0.57001,20.09646,20,
62071,23.66194,95192,15.74239,80.73300,523.60620,-10.07857,-1.36391,0.43789,0.03299,-0.03299,0.12920,-37.66442,-1.14002,19.07337,20,
63417,23.67740,95192,15.70331,80.88800,523.60620,-9.49711,-1.20598,2.34736,-0.04307,-0.00183,0.12828,-37.09442,-3.05466,17.99182,20,
64766,23.69381,95191,15.65434,81.83300,523.69342,-9.71247,-1.11266,1.39980,-0.17165,-0.15058,0.10904,-37.56212,-2.44081,16.86641,20,
66117,23.70990,95192,15.61531,81.99300,523.69342,-9.88475,-1.83769,0.63171,0.07575,0.02566,0.07361,-38.13213,-0.92078,19.35107,20,
67463,23.72820,95191,15.57142,82.88200,523.69342,-9.90629,-1.22752,1.05523,0.10140,0.07850,0.06384,-37.53288,-2.85004,16.32564,20,
68811,23.74461,95192,15.53741,83.45800,523.60620,-9.88475,-1.42852,0.89731,0.40714,-0.08277,0.01069,-37.60596,-2.49927,15.81409,20,
70211,23.73799,95191,15.47250,84.04200,523.69342,-9.90629,-1.79462,0.96191,-0.26542,0.07605,-0.02871,-38.00058,-2.10465,16.57410,20,
71557,23.75660,95192,15.44358,84.12600,523.69342,-9.88475,-1.65105,0.78963,-0.01405,-0.06048,0.05528,-37.41596,-0.67232,18.00643,20,
72903,23.78374,95192,15.41506,84.80500,523.60620,-9.89193,-1.68694,0.86142,0.04887,0.03390,-0.05345,-38.48290,-0.97925,18.19643,20,
74253,23.80519,95192,15.36642,85.32100,523.60620,-9.96371,-1.50748,0.56710,0.09102,-0.02016,0.00367,-37.85443,-0.78924,19.90646,20,
75599,23.82507,95192,15.33758,85.84400,523.60620,-9.82732,-1.87358,0.35174,-0.09346,-0.03665,-0.05651,-37.94212,-0.89155,16.41333,20,
76945,23.84590,95192,15.31374,86.19600,523.60620,-9.89193,-1.37109,0.19382,0.04612,-0.04612,0.07086,-36.67057,-3.82929,16.95411,20,
78294,23.86294,95191,15.27485,86.73000,523.60620,-9.88475,-1.22752,0.08614,0.03207,-0.03054,0.04276,-37.89827,-3.28851,15.88717,20,
79642,23.88029,95192,15.24590,87.27000,523.60620,-9.91346,-1.42852,0.12203,-0.07483,-0.02535,-0.02474,-36.83134,-3.39082,16.53025,20,
80989,23.89607,95191,15.21689,87.36100,523.69342,-10.02114,-1.70130,0.02154,0.01527,-0.06597,0.06170,-36.68518,-2.51388,18.34259,20,
82334,23.91247,95191,15.19286,87.90900,523.60620,-9.94218,-1.71565,-0.00718,-0.03360,-0.09102,0.01283,-37.48904,-2.03157,17.18796,20,
83678,23.93267,95192,15.17398,88.09300,523.69342,-9.72682,-1.31366,0.23689,-0.01069,-0.04581,0.00519,-37.28442,-1.85618,18.15259,20,
85025,23.95002,95191,15.15000,88.83800,523.60620,-9.86322,-1.61516,0.03589,-0.04062,-0.10629,0.10079,-37.25519,-1.94388,19.38030,20,
86370,23.96896,95192,15.12610,88.46400,523.60620,-9.79143,-1.45005,0.02871,0.06200,0.01405,0.02535,-37.21134,-2.80620,18.69337,20,
87716,23.98379,95193,15.11688,89.59500,523.60620,-10.38006,-1.37827,-0.05025,0.45754,0.26664,-0.08460,-36.34902,-4.35545,9.88015,20,
89063,23.99925,95191,15.09282,90.07500,523.69342,-9.29612,-1.67258,3.07956,0.00794,-0.01222,0.03543,-35.55978,-2.16311,-1.78310,20,
90416,24.00871,95191,15.07345,89.97900,523.69342,-9.54736,-1.67258,2.78525,0.03360,0.02077,-0.01161,-35.60363,-2.64543,-1.47618,20,
91812,24.00492,95191,15.04852,90.07500,523.69342,-9.81297,-1.96690,1.33520,-0.00855,-0.08308,0.04734,-38.48290,-0.76001,8.21397,20,
93158,24.02733,95191,15.01984,90.95300,523.69342,-9.67657,-2.31865,1.05523,-0.07880,-0.13928,0.01313,-38.58521,0.97925,10.74247,20,
94504,24.05510,95191,15.01122,90.85400,523.69342,-9.65504,-2.52682,1.03370,0.00183,-0.02352,0.01191,-38.95060,1.24233,10.08477,20,
95853,24.07687,95192,14.99242,91.64700,523.69342,-9.69811,-2.52682,1.15573,-0.01741,-0.02352,0.02810,-39.40368,1.73926,9.89477,20,
97200,24.09643,95191,14.97352,91.84700,523.69342,-9.65504,-2.46939,0.93320,0.03451,-0.00244,-0.00580,-39.68138,1.35925,11.83864,20,
98546,24.11600,95191,14.95957,92.04800,523.69342,-9.69093,-2.31865,1.04088,0.05742,-0.00947,0.02413,-38.71675,1.02309,10.93248,20,
99892,24.13240,95192,14.93558,92.14900,523.51636,-9.61915,-2.61296,0.81117,0.00733,-0.02382,0.00092,-39.33060,2.79158,12.20403,20,
101245,24.14692,95192,14.90656,92.96400,523.60620,-9.68375,-2.69193,0.91167,0.04490,0.02505,0.01894,-39.75446,1.60772,11.28325,20,
102591,24.16711,95192,14.89264,92.75900,523.60620,-9.76272,-1.99561,0.80399,-0.07025,-0.12798,-0.02413,-38.90675,-0.42385,11.97018,20,
103938,24.18415,95191,14.87363,93.37700,523.60620,-9.88475,-1.95254,0.58146,-0.00794,-0.07239,-0.00519,-38.71675,-0.74540,14.39638,20,
105286,24.20056,95192,14.85460,94.00400,523.51636,-9.94936,-0.60299,-1.91665,-0.30085,-0.23702,0.18173,-34.98977,-5.97778,22.30342,20,
106633,24.21760,95192,14.83560,94.10900,523.60620,-9.99961,-1.06959,-0.53839,-0.06964,-0.13775,0.03940,-35.77901,-5.17393,18.35720,20,
107978,24.23306,95193,14.81158,94.63900,523.51636,-10.11446,-0.84706,-0.90449,-0.02016,-0.09591,0.01008,-35.39901,-5.34931,19.49722,20,
109323,24.25262,95191,14.79270,95.28300,523.60620,-9.97807,-0.33021,-0.48096,-0.06720,-0.06048,0.22541,-35.16515,-6.98626,19.21953,20,
110672,24.26493,95191,14.75866,94.77100,523.60620,-10.00678,-0.84706,-0.27278,0.02841,0.01619,0.03879,-36.08594,-5.18854,18.32797,20,
112019,24.28134,95192,14.72976,95.49900,523.60620,-9.97807,-0.84706,0.02871,-0.05742,-0.06322,0.08766,-35.31131,-5.94855,16.64718,20,
113406,24.27723,95193,14.69499,94.34600,523.51636,-9.99961,-0.68195,0.02871,-0.00916,-0.11240,-0.02291,-36.20287,-5.01315,15.44870,20,
114752,24.29364,95193,14.67598,94.93200,523.42920,-9.93500,-0.91167,0.16510,0.00214,-0.02352,-0.00886,-35.42824,-4.61853,15.34639,20,
116101,24.31699,95193,14.64247,95.85200,523.51636,-9.87039,-1.56491,-0.46660,-0.00489,-0.03238,0.02779,-37.16750,-2.58696,18.51798,20,
117447,24.33813,95192,14.61874,95.85200,523.60620,-9.92064,-1.42134,-0.90449,-0.04765,-0.05986,0.08338,-36.02748,-3.24467,21.01725,20,
118793,24.35769,95192,14.59000,96.18100,523.60620,-9.96371,-1.23470,-0.37328,0.01161,-0.02443,0.06261,-36.24671,-4.01929,18.47413,20,
120138,24.37473,95192,14.55623,96.56800,523.51636,-9.92064,-1.08395,-0.33021,0.05009,0.01497,-0.01527,-36.04210,-3.72698,18.57644,20,
121488,24.39019,95194,14.52732,96.29100,523.34198,-9.94218,-0.81117,-0.53839,0.00275,-0.05773,0.01252,-35.39901,-4.51622,17.02718,20,
122832,24.40692,95194,14.49847,96.90200,523.42920,-10.01396,-0.95474,-0.55274,-0.01772,0.00550,0.09285,-35.60363,-4.92546,18.69337,20,
124178,24.42364,95193,14.47456,97.06900,523.42920,-9.92064,-0.86859,-0.10050,0.04246,-0.07972,-0.07361,-35.92517,-4.86700,18.09412,20,
125527,24.43879,95193,14.45059,97.40700,523.51636,-9.94936,-0.89731,-0.07896,0.01100,-0.03024,0.02199,-35.31131,-5.65624,17.21719,20,
126875,24.45236,95193,14.43147,97.91700,523.51636,-9.87757,-1.90229,0.02871,-0.41508,-0.21716,0.03879,-35.38439,-5.46624,18.76644,20,
128221,24.46845,95192,14.40755,98.54900,523.51636,-9.94218,-1.04088,-0.26560,0.13378,0.09224,-0.12004,-35.63285,-4.04852,19.73107,20,
129566,24.48549,95193,14.38859,98.08900,523.42920,-9.89911,-0.17228,0.54556,-0.05101,-0.18998,0.16860,-34.43438,-7.64396,16.20871,20,
130916,24.49874,95192,14.35962,97.91700,523.60620,-9.86322,-0.53121,-0.02871,0.00947,-0.05895,0.04795,-35.01900,-6.12394,17.83104,20,
132261,24.51389,95191,14.33566,99.07100,523.60620,-9.94936,-0.50967,0.16510,0.01344,-0.02382,0.02474,-34.98977,-6.06548,16.73487,20,
133608,24.53029,95192,14.31176,98.31800,523.51636,-9.89911,-0.45942,0.22971,0.01497,-0.02321,-0.04826,-35.28208,-6.08009,16.45718,20,
135004,24.52493,95192,14.29182,98.31800,523.60620,-10.10728,-0.72503,0.09332,0.04490,0.02016,-0.04948,-34.75592,-6.28471,17.18796,20,
136354,24.53850,95192,14.27765,99.36400,523.60620,-10.02114,-0.48814,0.13639,0.14416,0.03451,-0.01222,-34.65361,-6.46010,17.90412,20,
137704,24.56121,95192,14.26388,98.54900,523.51636,-9.98525,-0.76810,-0.23689,-0.01955,-0.05498,0.00702,-35.38439,-5.78778,18.70798,20,
139049,24.58457,95192,14.25506,99.01300,523.60620,-9.95653,-0.68913,-0.07896,0.28191,0.31826,-0.06139,-35.01900,-5.91932,18.92721,20,
140395,24.60381,95193,14.24607,100.07400,523.42920,-10.06421,-0.14357,0.05743,-0.14630,-0.12126,0.00489,-34.15668,-7.65858,18.18182,20,
141744,24.62148,95194,14.25669,98.95500,523.42920,-9.70529,-1.27777,-1.99561,0.18051,0.13378,-0.05315,-34.49284,-3.05466,26.98042,20,
143088,24.64073,95194,14.24277,99.13000,523.51636,-9.96371,-0.87577,-0.77527,0.21075,0.35033,-0.02046,-34.58053,-6.19702,21.87957,20,
144434,24.65745,95193,14.23366,99.48200,523.51636,-9.62633,-0.69631,0.15793,0.22907,0.10843,-0.02566,-35.29670,-6.44548,17.78720,20,
145780,24.67197,95193,14.22938,100.01400,523.51636,-9.99243,-0.52403,0.11486,0.00702,-0.00702,-0.00489,-35.20900,-6.85472,16.91026,20,
147130,24.68617,95193,14.23492,99.83600,523.51636,-10.01396,-0.12203,-0.00718,-0.01344,-0.07391,-0.02291,-34.66822,-7.52704,17.21719,20,
148475,24.70289,95193,14.23074,100.43300,523.42920,-9.89911,-0.79681,-0.12203,-0.03054,-0.03054,0.06353,-35.31131,-5.52470,20.79801,20,
149825,24.71772,95193,14.24124,99.95500,523.42920,-9.99243,-0.48096,-0.89013,-0.02413,-0.05467,0.08766,-34.87284,-5.72932,21.79187,20,
151170,24.73571,95194,14.23711,100.01400,523.42920,-9.97807,-0.51685,-0.47378,0.07514,0.05376,-0.00825,-35.04823,-7.22011,20.79801,20,
152518,24.74833,95193,14.24259,99.95500,523.42920,-9.91346,-0.33021,-0.45942,-0.08735,-0.03696,0.01802,-34.22976,-6.41625,22.02572,20,
153864,24.76600,95194,14.23844,100.55300,523.42920,-9.88475,-0.17946,-0.35892,0.03421,-0.01680,-0.01069,-33.63052,-6.82549,21.01725,20,
155210,24.78115,95193,14.24403,100.55300,523.51636,-9.99961,-0.09332,-0.23689,0.02352,-0.01405,0.02077,-34.01052,-7.57089,20.30108,20,
156606,24.77547,95192,14.24378,100.37300,523.60620,-9.87039,0.14357,0.33739,-0.01985,-0.10263,0.08155,-33.61590,-9.03245,18.26951,20,
157949,24.79250,95193,14.23961,100.67300,523.42920,-10.57388,0.31585,0.16510,0.08827,0.12004,-0.08460,-34.31745,-8.12628,19.99415,20,
159322,24.80576,95194,14.24019,100.97500,523.42920,-9.87757,-0.01436,0.43789,-0.00031,-0.00855,0.05192,-33.87898,-8.76937,17.52412,20,
160667,24.82785,95194,14.24117,100.61300,523.42920,-10.09293,0.05025,0.02871,0.01344,-0.00428,-0.02810,-33.63052,-9.10552,19.23414,20,
162016,24.84930,95194,14.25196,100.79400,523.34198,-10.35135,0.05025,-0.32303,0.00855,-0.04704,0.00580,-33.87898,-8.52090,19.00029,20,
163361,24.87044,95194,14.24797,100.97500,523.34198,-10.15753,0.07178,-0.07178,-0.00947,-0.04093,0.02871,-33.35282,-8.41859,19.70184,20,
164707,24.88874,95196,14.24385,101.40200,523.25476,-10.04268,-0.00718,-0.07178,0.02841,-0.01252,-0.00305,-33.90821,-8.84244,19.42414,20,
166053,24.90484,95195,14.24948,101.34100,523.34198,-9.99961,-0.40199,0.20818,0.16768,0.16921,0.05559,-34.30284,-8.50628,19.02952,20,
167403,24.91872,95195,14.24517,101.46300,523.42920,-9.78425,-0.87577,2.27557,0.02016,-0.07239,-0.09652,-37.19672,-5.68547,11.19556,20,
168749,24.93418,95194,14.25078,101.34100,523.42920,-9.89911,-2.69193,0.34457,-0.58521,-0.43035,-0.14691,-39.38907,1.03771,12.87635,20,
170093,24.95028,95195,14.25149,101.28000,523.25476,-9.86322,-0.56710,1.77308,0.01130,0.01497,-0.02810,-36.72903,-3.90237,20.30108,20,
171441,24.96416,95195,14.23732,102.39000,523.34198,-8.70030,-3.33799,-2.77807,0.08125,0.21930,0.51649,-37.51827,6.76703,25.60655,20,
172840,24.95374,95196,14.24179,101.64700,523.34198,-8.63570,-4.33579,-2.13200,-0.00611,0.07147,0.02046,-39.59369,11.48787,20.90032,20,
174186,24.96826,95195,14.25721,102.01700,523.25476,-8.50648,-4.86700,-2.64885,-0.41966,-0.48075,0.17104,-38.16135,12.18942,25.37270,20,
175533,24.99287,95196,14.25830,101.46300,523.25476,-9.96371,-0.06461,0.39482,0.36133,0.27275,-0.05559,-35.01900,-7.16165,17.46565,20,
176878,25.01307,95194,14.26905,101.52400,523.42920,-9.72682,-2.40479,-0.10050,0.04673,0.06170,-0.00244,-38.80444,2.11926,19.42414,20,
178228,25.02884,95194,14.26975,101.64700,523.42920,-9.69811,-1.65105,1.38544,0.10446,0.22633,-0.20311,-37.79597,-2.17773,14.06022,20,
179573,25.04683,95195,14.28533,101.70900,523.34198,-9.86322,-1.50748,0.72503,0.04215,-0.00672,0.00428,-38.05905,-0.93540,16.82257,20,
180920,25.06229,95194,14.30573,101.34100,523.42920,-9.38226,-1.72283,0.12921,-0.12889,-0.26420,0.10812,-38.20520,1.44695,20.18416,20,
182266,25.07396,95194,14.33584,101.34100,523.42920,-9.84168,-1.98126,0.28714,0.08613,0.06445,-0.06720,-38.10289,1.19848,20.40339,20,
183619,25.08911,95194,14.33158,101.21900,523.42920,-10.17907,-2.49811,-0.28714,-0.10873,-0.23060,0.18479,-38.07366,2.00234,23.07805,20,
184965,25.10457,95194,14.36680,101.64700,523.42920,-9.71965,-2.62014,-0.40199,0.02810,-0.04734,-0.05009,-38.77521,4.22391,22.47881,20,
186310,25.12098,95195,14.35766,102.20300,523.25476,-9.84168,-2.44786,-0.33739,0.15577,0.11881,-0.04490,-37.69366,3.43467,23.06343,20,
187660,25.13360,95196,14.36809,101.58600,523.34198,-10.12882,-2.03868,-0.31585,-0.02535,-0.00458,-0.13867,-38.68752,1.53464,19.43876,20,
189005,25.14685,95195,14.38349,102.32800,523.34198,-9.64068,-1.77308,0.78245,0.01527,0.09041,-0.04307,-38.74598,0.68693,17.36334,20,
190352,25.16200,95194,14.39403,101.83200,523.34198,-9.87039,-1.51466,0.42353,0.03787,0.00428,-0.01772,-38.19059,-0.87694,18.12336,20,
191697,25.17620,95193,14.40454,102.20300,523.42920,-9.80579,-1.90229,0.17228,0.11423,0.14325,-0.08888,-38.59982,0.55539,17.62642,20,
193047,25.18693,95195,14.40008,102.07900,523.34198,-9.87757,-2.32582,0.37328,0.06048,0.01130,0.01222,-38.92137,1.63695,17.86028,20,
194471,25.16768,95194,14.40416,102.07900,523.42920,-9.83450,-2.39761,-0.20100,0.01741,-0.02107,-0.03879,-38.84829,2.98158,22.02572,20,
195817,25.18535,95193,14.41976,102.01700,523.42920,-9.78425,-0.48096,0.61735,0.42333,0.26359,-0.29658,-35.96902,-3.33236,22.25957,20,
197163,25.21375,95194,14.42597,101.58600,523.42920,-10.23650,-0.98345,-0.20100,0.06933,0.05528,0.01100,-35.91055,-2.68927,24.91961,20,
198511,25.23363,95194,14.42686,102.45200,523.34198,-10.06421,-0.40199,0.06461,-0.83780,0.03085,0.07483,-35.99825,-2.66004,24.67115,20,
199857,25.25224,95195,14.43263,102.76500,523.34198,-10.07139,-0.44506,0.50967,0.03146,-0.02505,0.03390,-36.49517,1.47618,27.56504,20,
201203,25.26928,95194,14.42845,101.70900,523.34198,-10.02832,-1.12702,0.48096,-0.11118,-0.01100,0.08186,-36.71441,4.66238,27.68196,20,
202549,25.28443,95195,14.44395,102.39000,523.25476,-10.04268,-0.99063,0.76810,0.08674,0.02107,-0.04795,-37.38673,4.12160,26.62964,20,
203896,25.29800,95194,14.43962,103.08000,523.42920,-9.72682,-1.18445,1.14138,-0.07025,-0.10873,0.00153,-37.40134,4.76469,26.64426,20,
205243,25.31283,95195,14.45016,102.26500,523.42920,-10.56670,-1.23470,0.35892,-0.13286,-0.06231,0.17440,-37.48904,4.99854,26.83426,20,
206593,25.32734,95195,14.43599,102.14100,523.25476,-9.82014,-1.15573,1.45723,-0.14416,0.03757,0.03543,-38.54136,2.85004,23.19497,20,
207938,25.34186,95195,14.44158,103.33400,523.25476,-9.82014,-2.17508,1.04088,-0.02474,0.09407,0.02810,-38.17597,5.96317,25.95732,20,
209286,25.35543,95195,14.43231,103.39700,523.34198,-9.38226,-2.31865,2.37607,-0.14355,-0.04704,0.26114,-38.39521,4.23853,23.06343,20,
210631,25.37089,95195,14.42312,103.01700,523.34198,-9.81297,-0.68195,1.69412,0.28253,0.24007,-0.39004,-37.63520,-1.21310,19.27799,20,
211977,25.38603,95195,14.41392,103.14400,523.25476,-9.87757,-1.43569,1.44287,0.37996,0.28314,0.02077,-38.71675,3.23005,20.91494,20,
213326,25.39802,95194,14.42434,103.52500,523.42920,-10.22214,-1.69412,0.43071,-0.13653,-0.20617,0.20067,-39.00906,4.12160,23.57498,20,
214672,25.41096,95194,14.42986,102.76500,523.34198,-9.89911,-1.67258,0.91884,-0.22846,-0.10782,0.18998,-38.55598,3.93160,21.44110,20,
216071,25.40023,95194,14.43432,103.20700,523.42920,-9.76272,-1.93819,0.98345,-0.02871,-0.08980,-0.03635,-39.54984,5.04239,20.65186,20,
217416,25.41475,95194,14.44979,102.89100,523.42920,-9.84886,-1.61516,1.33520,0.01772,0.01344,-0.13958,-38.86290,2.85004,20.18416,20,
218782,25.42800,95195,14.45038,103.08000,523.34198,-9.82732,-1.65105,1.22034,-0.00947,-0.10690,-0.00641,-38.39521,1.65156,20.16954,20,
220128,25.44819,95195,14.45129,103.58900,523.34198,-9.89193,-1.65105,1.09113,0.02443,-0.01985,-0.00794,-38.61444,3.24467,23.23882,20,
221473,25.46934,95195,14.45224,103.52500,523.42920,-9.97807,-1.42852,0.74656,0.03879,-0.09163,0.06445,-38.62906,1.62233,21.38264,20,
222819,25.48858,95195,14.44816,103.46100,523.34198,-9.94218,-1.15573,1.32084,0.02077,-0.05681,0.03757,-38.54136,2.13388,19.92108,20,
224168,25.50247,95195,14.44878,103.52500,523.42920,-9.94218,-0.81117,1.39980,0.03146,-0.04368,-0.03787,-38.39521,0.38001,21.17802,20,
225514,25.51572,95194,14.43949,103.78000,523.42920,-9.61915,-1.03370,1.96690,-0.06872,0.01069,-0.12523,-38.73137,1.03771,20.79801,20,
226857,25.53150,95194,14.43526,104.16600,523.42920,-9.74118,-2.31147,1.32802,-0.00519,-0.03910,0.13622,-38.92137,3.25928,21.48495,20,
228202,25.54570,95194,14.42107,103.84400,523.34198,-10.21496,-2.04586,0.91167,0.30482,0.35675,-0.00977,-38.81906,2.92312,21.66033,20,
229552,25.55516,95194,14.41161,104.23100,523.42920,-9.94218,-0.76092,1.16291,0.25687,-0.02413,-0.14783,-38.46828,1.46156,19.95031,20,
230901,25.56652,95194,14.37754,105.07800,523.42920,-9.88475,-2.00279,1.09831,0.21869,0.21197,-0.18357,-39.08214,3.11312,20.92955,20,
232247,25.58198,95195,14.35353,104.81600,523.34198,-9.91346,-1.37109,1.49312,0.00214,-0.03115,-0.07147,-38.52674,2.11926,20.11108,20,
233590,25.59618,95195,14.31466,105.87200,523.42920,-9.82014,-1.93819,1.39262,0.03818,-0.01130,-0.00153,-39.16983,2.96697,19.81877,20,
234940,25.60470,95194,14.28048,105.67200,523.42920,-9.66940,-2.13200,1.49312,0.00458,-0.11759,0.08980,-39.63753,6.53318,20.91494,20,
236285,25.61827,95195,14.24160,106.94900,523.34198,-9.66222,-2.31147,1.45723,0.04490,-0.01466,-0.10660,-39.46215,9.25168,24.02806,20,
237682,25.60723,95195,14.19177,106.67800,523.34198,-9.77707,-2.09611,1.48594,0.02352,-0.02749,-0.01894,-39.24291,6.65010,22.84420,20,
239029,25.61890,95196,14.15284,106.07200,523.25476,-9.76272,-1.96690,1.33520,0.04184,-0.02230,-0.01985,-39.27214,7.00088,23.95498,20,
240378,25.63846,95196,14.11426,107.42800,523.25476,-9.51147,-1.92383,2.08176,-0.07941,-0.06994,0.11454,-39.71061,8.15551,23.15112,20,
241724,25.65866,95195,14.07572,106.81300,523.34198,-9.76272,-1.77308,1.75872,0.00855,-0.00733,0.02046,-39.68138,8.69629,23.50190,20,
243072,25.67318,95195,14.04187,107.22200,523.34198,-9.73400,-1.89512,1.48594,0.04917,-0.02352,-0.02505,-39.37445,9.64630,23.80883,20,
244421,25.68422,95196,13.99803,107.91000,523.34198,-9.76272,-1.66540,1.67258,0.02046,-0.02993,-0.01527,-39.90061,8.95937,23.50190,20,
245767,25.69842,95195,13.95433,107.77200,523.25476,-9.76272,-2.02433,1.61516,0.02474,-0.01161,0.06628,-39.94446,9.23707,23.51652,20,
247112,25.71104,95196,13.93027,107.77200,523.34198,-9.76989,-1.48594,1.57926,-0.03176,-0.10446,0.05773,-39.06752,7.39550,24.45191,20,
248458,25.72398,95195,13.90623,108.39700,523.34198,-9.80579,-1.90229,1.52901,0.02107,-0.03390,-0.00641,-39.56445,9.60246,25.65039,20,
249807,25.73313,95195,13.87218,108.95900,523.34198,-10.08575,-0.96191,-0.60299,0.20525,0.18784,-0.26237,-35.98363,4.19468,30.44431,20,
251154,25.74386,95195,13.84313,108.11800,523.34198,-9.96371,-1.17727,-0.03589,-0.03543,-0.04612,0.03176,-36.42210,3.62467,29.45045,20,
252499,25.75585,95195,13.81415,109.10100,523.25476,-10.02114,-1.49312,-0.02154,0.13806,-0.02321,-0.03574,-37.00673,4.44315,30.23969,20,
253844,25.76752,95196,13.79007,108.32700,523.25476,-9.82732,-1.77308,0.17228,0.00947,-0.03238,-0.00580,-37.91289,8.46244,29.66969,20,
255197,25.77793,95197,13.79052,108.88900,523.25476,-9.91346,-1.36391,0.53121,-0.03543,-0.02474,0.05864,-37.07980,5.53932,28.50044,20,
256542,25.78898,95196,13.75658,108.88900,523.25476,-9.83450,-1.59362,0.38764,0.07483,0.00367,0.00702,-37.26980,6.60626,29.53815,20,
257889,25.80160,95196,13.76204,108.18800,523.25476,-9.95653,-1.53619,-0.27278,0.21808,-0.02260,-0.20159,-35.99825,3.52236,30.42970,20,
259283,25.79119,95195,13.73702,108.46700,523.25476,-9.92064,-1.03370,-0.68195,-0.06658,-0.02016,0.01924,-34.88746,-2.96697,28.06197,20,
260633,25.80349,95196,13.74246,109.17200,523.25476,-10.09293,-0.24407,-0.73938,0.11515,-0.11393,0.14600,-33.16282,-5.11546,28.88044,20,
261980,25.82589,95196,13.72377,108.74800,523.25476,-10.02114,0.00000,-1.09831,0.03299,-0.06811,0.09621,-32.78281,-4.41391,29.71354,20,
263325,25.84357,95196,13.73436,108.88900,523.16760,-10.12164,-0.05025,-0.91884,-0.00825,-0.06567,0.01863,-32.81204,-4.58930,29.04122,20,
264670,25.86029,95196,13.72034,109.74200,523.34198,-9.99961,-0.09332,-0.80399,0.03757,-0.01436,0.08186,-33.00204,-4.67700,28.86583,20,
266023,25.86881,95196,13.69613,109.74200,523.25476,-9.97807,-0.04307,-0.94756,0.01222,-0.04643,-0.02902,-33.29436,-3.84391,30.57585,20,
267369,25.88333,95194,13.67219,109.45600,523.34198,-9.69811,-0.24407,-1.05523,-0.03146,-0.03543,0.01100,-33.68898,-3.78544,29.34814,20,
268715,25.89595,95195,13.66291,109.74200,523.25476,-9.89911,-0.66760,-0.96909,0.11484,0.03665,0.18509,-33.27974,-3.55159,29.27507,20,
270063,25.90762,95195,13.64867,109.17200,523.25476,-9.84886,0.05743,-1.14855,0.01741,-0.01252,-0.01833,-32.56358,-3.06928,30.75124,20,
271407,25.91930,95195,13.62461,109.59900,523.34198,-10.10728,-0.06461,-0.85424,0.08033,0.00550,-0.01924,-32.60743,-2.03157,31.62818,20,
272753,25.93223,95195,13.61044,109.74200,523.34198,-9.71965,-0.49531,-1.13420,0.06261,-0.00458,-0.02657,-33.22128,-1.95849,29.88892,20,
274099,25.94517,95195,13.60608,109.52700,523.42920,-9.97089,0.02871,-1.49312,-0.06994,-0.00977,-0.04704,-32.49050,-2.51388,32.50512,20,
275448,25.95527,95195,13.58196,110.17300,523.34198,-9.82732,-2.23968,-1.29930,0.02291,-0.03818,0.07605,-34.72669,9.06168,33.90821,20,
276793,25.96884,95196,13.58745,109.81300,523.34198,-16.76172,-14.67997,-6.01556,-2.35916,-0.27061,1.66888,-19.76031,41.11371,38.93598,20,
278142,25.97956,95195,13.58299,109.24300,523.34198,-0.63171,-9.83450,-0.00718,0.01405,-0.03268,0.02505,-3.17159,52.39696,34.62438,20,
279488,25.99156,95195,13.56878,109.24300,523.42920,-0.61735,-9.94218,0.04307,0.02138,-0.02810,0.02138,-3.08389,52.06080,34.31745,20,
280883,25.98020,95195,13.56338,109.59900,523.42920,-0.62453,-9.86322,0.05743,0.02199,-0.02810,0.02046,-2.55773,52.57235,33.57205,20,
282228,25.98903,95194,13.54903,110.17300,523.34198,0.07896,-9.61197,0.47378,-0.08888,0.03329,0.26237,-3.14236,52.60158,34.68284,20,
283574,26.00670,95196,13.53506,109.88500,523.25476,-0.57428,-10.09293,0.02154,-0.00764,0.01985,0.03146,-2.71850,52.77697,33.89360,20,
284919,26.02311,95195,13.52594,110.10100,523.42920,-1.08395,-10.01396,-0.51685,-0.00244,-0.07789,0.02199,-2.83543,52.47004,34.15668,20,
286269,26.03194,95196,13.51650,110.24500,523.34198,-0.43071,-9.81297,0.04307,0.00947,-0.01619,0.00794,-2.76235,52.49927,33.06051,20,
287616,26.04330,95195,13.51699,109.88500,523.34198,-0.24407,-9.91346,-0.06461,0.02688,0.04612,-0.01100,-2.42619,52.68927,33.74744,20,
288961,26.05435,95195,13.49292,109.95700,523.34198,-0.43071,-9.85604,0.00000,0.01802,-0.02016,0.01894,-2.51388,52.66004,33.96667,20,
290312,26.06350,95197,13.50803,109.88500,523.16760,-0.21535,-9.25305,0.54556,0.01772,-0.02535,-0.00702,-1.82695,52.38234,34.14207,20,
291660,26.07107,95197,13.50344,109.88500,523.34198,-0.48814,-9.89193,0.20100,0.02230,-0.02596,0.01038,-1.84157,52.36773,33.55744,20,
293006,26.08211,95196,13.49900,109.59900,523.25476,-0.35174,-10.12882,-0.20818,0.02443,-0.06017,0.01680,-1.50541,52.25080,32.37357,20,
294351,26.09284,95196,13.50436,109.24300,523.25476,-0.42353,-9.84168,0.08614,0.01955,-0.02779,0.01436,-2.90851,52.28003,34.05437,20,
295701,26.10136,95195,13.50963,109.31400,523.42920,-0.51685,-9.84168,0.02154,0.01985,-0.02810,0.01741,-2.64543,52.11926,33.79129,20,
297047,26.11083,95195,13.51003,109.59900,523.34198,-0.41635,-9.92064,0.03589,0.01680,-0.02779,0.01374,-2.98158,52.25080,33.67437,20,
298393,26.12093,95195,13.51537,109.67000,523.34198,-0.43071,-9.92064,0.03589,0.01772,-0.03146,0.01710,-2.39696,52.33850,34.25899,20,
299739,26.13102,95196,13.52071,109.81300,523.25476,-0.46660,-9.86322,0.03589,0.01558,-0.03146,0.01527,-2.57235,52.63081,33.96667,20,
301088,26.13828,95196,13.52592,110.17300,523.25476,-0.46660,-9.93500,0.02154,0.02016,-0.03115,0.01710,-2.54312,52.13388,33.99591,20,
302476,26.12818,95196,13.52059,108.81800,523.34198,-0.52403,-9.93500,0.05743,0.01619,-0.02505,0.01466,-2.45542,52.29465,33.32359,20,
303821,26.13828,95196,13.54065,109.17200,523.25476,-0.38046,-9.85604,0.09332,0.01955,-0.02779,0.01772,-2.60158,52.16311,33.86437,20,
305167,26.15690,95197,13.52180,108.74800,523.16760,-0.40199,-9.87757,0.06461,0.01894,-0.02963,0.01680,-2.38234,52.41158,34.28822,20,
306516,26.17047,95197,13.54693,108.95900,523.16760,-0.48096,-9.89193,0.00718,0.02169,-0.03238,0.02016,-2.20696,51.75387,34.08360,20,
307862,26.18278,95197,13.55727,109.45600,523.08038,-0.45224,-9.92782,0.05743,0.01772,-0.02749,0.01680,-2.48465,52.06080,33.79129,20,
309208,26.19350,95198,13.55773,109.31400,523.16760,-0.40917,-9.87757,0.07178,0.01802,-0.02718,0.01894,-2.54312,52.47004,33.67437,20,
310552,26.20423,95197,13.55328,109.38500,523.16760,-0.49531,-9.92782,0.03589,0.01924,-0.02779,0.01741,-2.99620,52.16311,33.55744,20,
311902,26.21086,95197,13.54865,109.24300,523.25476,-0.45942,-9.90629,0.03589,0.02199,-0.03054,0.01558,-2.67466,52.49927,34.47822,20,
313247,26.21843,95197,13.56370,109.45600,523.25476,-0.48096,-9.94218,0.05025,0.01924,-0.02779,0.01374,-2.67466,52.36773,34.58053,20,
314597,26.22600,95197,13.56403,109.38500,523.16760,-0.43071,-9.89193,0.02871,0.02138,-0.02718,0.01558,-3.56621,52.35312,35.15054,20,
315942,26.23736,95197,13.56942,109.03000,523.16760,-0.42353,-9.92064,0.08614,0.01894,-0.02718,0.01649,-3.28851,52.61620,34.25899,20,
317292,26.24367,95197,13.56478,109.24300,523.25476,-0.50967,-9.94218,0.04307,0.01680,-0.02810,0.01710,-3.23005,52.04618,33.98129,20,
318638,26.25314,95196,13.55536,109.45600,523.25476,-0.50249,-9.92782,0.00718,0.01833,-0.03146,0.01558,-3.20082,52.58696,34.14207,20,
319981,26.26355,95197,13.56071,109.45600,523.16760,-0.50967,-9.83450,0.05025,0.02016,-0.02718,0.01710,-2.76235,52.86466,33.92283,20,
321328,26.27207,95197,13.55616,110.02900,523.25476,-0.43789,-9.87757,0.05743,0.02230,-0.03085,0.01619,-3.02543,52.19234,33.54282,20,
322676,26.27617,95197,13.55143,109.88500,523.08038,-0.43789,-9.87757,0.09332,0.01527,-0.03054,0.01741,-3.15697,52.98159,33.82052,20,
324069,26.26670,95197,13.54120,109.59900,523.25476,-0.48096,-9.86322,0.00718,0.02321,-0.02566,0.01741,-3.06928,52.79158,33.65975,20,
325415,26.27554,95197,13.54649,109.38500,523.25476,-0.50249,-9.90629,0.05743,0.01772,-0.02963,0.01680,-2.33850,52.07542,34.36130,20,
326765,26.28974,95197,13.54709,110.02900,523.25476,-0.53121,-9.85604,0.01436,0.02169,-0.02657,0.01710,-2.90851,52.90850,33.60129,20,
328114,26.30394,95197,13.52314,109.74200,523.16760,-0.44506,-9.89911,0.10768,0.01985,-0.02902,0.01741,-3.06928,52.79158,34.60976,20,
329459,26.31688,95198,13.50896,109.88500,523.08038,-0.60299,-9.94936,0.00718,0.00977,-0.04704,0.05162,-2.99620,52.70389,34.79977,20,
330803,26.32729,95199,13.49958,110.24500,523.08038,-0.47378,-9.87039,0.03589,0.02077,-0.02963,0.01772,-3.34697,52.92312,33.74744,20,
332165,26.32950,95198,13.49477,110.24500,523.08038,-0.51685,-9.90629,0.02871,0.01802,-0.03176,0.01527,-3.36159,52.41158,34.17130,20,
333513,26.33739,95198,13.49510,110.46300,523.08038,-0.46660,-9.85604,0.05025,0.01710,-0.02963,0.01649,-3.12774,52.61620,34.09822,20,
334862,26.34654,95197,13.49058,110.39000,523.16760,-0.55992,-9.89193,0.01436,0.02230,-0.03299,0.01741,-3.01082,52.44080,33.26513,20,
336210,26.35632,95197,13.47136,110.97300,523.16760,-0.49531,-9.94218,0.02871,0.02199,-0.02443,0.01405,-3.18620,52.36773,32.98743,20,
337566,26.36231,95197,13.46670,110.39000,523.16760,-0.55274,-9.87757,0.02871,0.02107,-0.02749,0.01588,-2.77697,52.30927,33.55744,20,
338915,26.37115,95197,13.46217,110.39000,523.16760,-0.45942,-9.93500,0.12203,0.02199,-0.02718,0.01588,-2.85004,52.61620,33.04589,20,
340262,26.37841,95196,13.45266,110.39000,523.16760,-0.47378,-9.89193,0.03589,0.01710,-0.02841,0.01436,-2.85004,52.71850,33.22128,20,
341611,26.38693,95198,13.45302,110.60800,523.08038,-0.47378,-9.89911,0.04307,0.01894,-0.03176,0.01558,-3.44928,52.99620,34.25899,20,
342963,26.39355,95198,13.44839,110.31800,523.08038,-0.48096,-9.79861,0.04307,0.01527,-0.03268,0.01405,-3.37621,52.54311,33.11897,20,
344359,26.37999,95198,13.43309,110.10100,523.16760,-0.39482,-9.96371,0.07896,0.02046,-0.03146,0.01466,-3.25928,52.87927,33.58667,20,
345707,26.39135,95197,13.43357,110.75400,523.08038,-0.45224,-9.92782,0.12203,0.02077,-0.02627,0.01741,-3.78544,52.68927,34.09822,20,
347056,26.40681,95197,13.42932,110.53500,523.16760,-0.38764,-9.82732,0.08614,0.01985,-0.02871,0.01710,-2.73312,52.58696,32.43204,20,
348411,26.41628,95196,13.40518,110.60800,523.25476,-0.45224,-9.87039,0.09332,0.02046,-0.02566,0.01680,-3.17159,52.33850,33.33820,20,
349759,26.42732,95196,13.39093,110.90000,523.25476,-0.44506,-9.85604,0.07896,0.01588,-0.02566,0.01374,-3.27390,52.49927,33.25051,20,
351108,26.43742,95196,13.37173,110.97300,523.25476,-0.46660,-9.83450,0.06461,0.01680,-0.02963,0.01588,-2.55773,52.86466,32.63666,20,
352455,26.44625,95196,13.36229,110.90000,523.25476,-0.46660,-9.89911,0.03589,0.01863,-0.02993,0.01710,-3.15697,52.61620,33.27974,20,
353807,26.45256,95195,13.34784,110.82700,523.25476,-0.41635,-10.01396,0.07896,0.02107,-0.02566,0.01436,-3.42005,48.81614,33.41128,20,
355153,26.46266,95196,13.34336,110.75400,523.16760,-0.45224,-9.90629,0.04307,0.01955,-0.02718,0.01466,-3.49313,52.26542,33.68898,20,
356502,26.47181,95197,13.33394,111.12000,523.16760,-0.50249,-9.94218,0.04307,0.01772,-0.02902,0.01680,-2.80620,52.32388,33.06051,20,
357849,26.47970,95196,13.31466,110.97300,523.25476,-0.41635,-9.90629,0.05743,0.02352,-0.02352,0.01710,-3.34697,52.48466,34.08360,20,
359201,26.48569,95196,13.31000,111.48800,523.25476,-0.42353,-9.94936,0.04307,0.01527,-0.02810,0.01710,-3.52236,52.98159,33.79129,20,
360554,26.49200,95196,13.30046,111.71000,523.25476,-0.50967,-9.88475,0.08614,0.02046,-0.02810,0.01130,-3.06928,52.80620,34.21514,20,
361902,26.50021,95197,13.30081,111.48800,523.16760,-0.47378,-9.93500,0.07178,0.01558,-0.02841,0.01680,-2.44081,52.44080,33.58667,20,
363253,26.50810,95197,13.28643,111.48800,523.25476,-0.48814,-9.90629,0.03589,0.01955,-0.02810,0.01833,-2.80620,52.48466,33.79129,20,
364601,26.51630,95197,13.27697,111.63600,523.16760,-0.50967,-9.88475,0.02871,0.02107,-0.03146,0.01497,-3.37621,52.06080,34.22976,20,
365999,26.50179,95196,13.24695,111.93400,523.16760,-0.41635,-9.86322,0.03589,0.01741,-0.02932,0.01558,-3.02543,52.19234,34.03975,20,
367347,26.51094,95197,13.23753,111.85900,523.16760,-0.48096,-9.88475,0.05743,0.01833,-0.03268,0.01741,-3.28851,52.52850,34.05437,20,
368699,26.52577,95197,13.21365,112.53300,523.16760,-0.53121,-9.94218,0.02871,0.02382,-0.02627,0.01619,-2.86466,52.54311,33.45513,20,
370048,26.53871,95198,13.20929,111.85900,522.99323,-0.48096,-9.94218,0.10768,0.02138,-0.02932,0.01619,-3.34697,51.98772,32.50512,20,
371396,26.55006,95198,13.18037,112.75900,523.08038,-0.48096,-9.87039,0.02154,0.01894,-0.02779,0.01497,-3.34697,52.38234,33.52821,20,
372749,26.55795,95198,13.16601,111.85900,523.08038,-0.41635,-9.96371,0.04307,0.02291,-0.02810,0.01894,-3.08389,52.42619,33.55744,20,
374099,26.56553,95198,13.13694,112.23200,522.99323,-0.47378,-9.87039,0.10768,0.01924,-0.02749,0.01649,-3.06928,52.13388,34.79977,20,
375448,26.57436,95198,13.12751,112.83500,523.08038,-0.45942,-9.93500,0.07896,0.01680,-0.02810,0.01619,-3.31774,52.32388,34.36130,20,
376797,26.58415,95198,13.09854,113.59700,523.16760,-0.53839,-9.92782,0.15075,0.01863,-0.02871,0.01741,-3.61006,52.30927,33.92283,20,
378144,26.59109,95197,13.06946,114.06000,523.08038,-0.48814,-9.95653,0.08614,0.01558,-0.02749,0.01710,-2.87928,52.68927,33.46975,20,
379496,26.59614,95198,13.04521,112.68400,523.16760,-0.45224,-9.86322,0.06461,0.01802,-0.02902,0.01283,-3.14236,52.26542,33.51360,20,
380845,26.60339,95197,13.02593,114.21500,523.08038,-0.48096,-9.88475,0.06461,0.01772,-0.03268,0.01680,-3.40544,52.22157,32.69512,20,
382193,26.61033,95199,13.01155,112.98700,522.99323,-0.48096,-9.90629,0.09332,0.01710,-0.03115,0.01527,-3.53698,52.79158,33.22128,20,
383542,26.61759,95199,12.99717,113.06300,522.99323,-0.48814,-9.91346,0.02871,0.01894,-0.02963,0.01466,-3.34697,52.52850,33.42590,20,
384898,26.61854,95198,12.95809,113.13900,523.08038,-0.44506,-9.94936,0.05743,0.02077,-0.02932,0.01802,-2.86466,52.82081,33.68898,20,
386246,26.62737,95197,12.94868,113.44400,523.08038,-0.45224,-9.90629,0.05025,0.02321,-0.02841,0.01772,-3.02543,52.09003,33.96667,20,
387642,26.61728,95199,12.91405,113.29100,523.08038,-0.41635,-9.83450,0.04307,0.01955,-0.02779,0.01619,-3.43467,52.33850,34.08360,20,
388990,26.62706,95198,12.89978,114.29300,523.08038,-0.48096,-9.84168,0.07178,0.02230,-0.02779,0.01558,-3.34697,52.39696,33.99591,20,
390340,26.64378,95199,12.88092,113.82800,522.99323,-0.50967,-9.84886,-0.00718,0.01588,-0.02871,0.01619,-2.41158,52.33850,33.55744,20,
391689,26.65798,95199,12.87173,115.07500,522.99323,-0.38764,-9.87757,0.05025,0.01802,-0.02810,0.01436,-2.63081,52.74773,34.53669,20,
393037,26.66934,95199,12.85265,114.52600,522.99323,-0.50967,-9.84886,0.05025,0.01833,-0.02871,0.01680,-3.17159,52.47004,35.22362,20,
394386,26.67723,95199,12.82855,113.52100,522.90601,-0.43071,-9.91346,0.08614,0.01680,-0.02810,0.01863,-2.77697,51.66618,33.57205,20,
395736,26.68448,95201,12.82884,114.06000,522.90601,-0.44506,-9.86322,0.05025,0.02199,-0.02627,0.01466,-2.96697,52.28003,33.39667,20,
397088,26.69332,95200,12.82432,113.90500,522.90601,-0.53121,-9.92064,0.06461,0.01985,-0.03024,0.01069,-3.05466,52.01696,34.03975,20,
398435,26.69995,95200,12.81482,113.36800,522.90601,-0.70349,-9.92782,0.02871,0.02046,-0.03848,0.04979,-3.30313,52.09003,33.79129,20,
399785,26.70405,95199,12.79545,113.67400,522.99323,-0.50967,-9.89911,0.02871,0.02413,-0.02932,0.01772,-3.15697,52.13388,33.60129,20,
401134,26.71099,95199,12.78597,114.06000,522.99323,-0.54556,-9.92064,0.04307,0.02016,-0.03054,0.01619,-2.86466,52.07542,34.40514,20,
402483,26.71856,95200,12.79604,113.06300,522.99323,-0.53121,-9.93500,0.06461,0.01894,-0.02779,0.01436,-3.15697,52.45543,34.69746,20,
403831,26.72519,95199,12.80119,113.67400,523.08038,-0.48814,-9.89193,0.03589,0.01436,-0.02535,0.01527,-3.52236,52.07542,34.02514,20,
405183,26.72866,95199,12.80133,113.36800,522.99323,-0.47378,-9.84886,0.07178,0.01833,-0.03360,0.01497,-3.49313,52.41158,34.60976,20,
406532,26.73624,95199,12.80652,113.13900,522.99323,-0.42353,-9.87757,0.05743,0.01741,-0.02596,0.01283,-2.99620,52.04618,33.30898,20,
407880,26.74381,95200,12.81171,113.67400,522.99323,-0.49531,-9.92782,0.07896,0.02352,-0.02993,0.01741,-3.21543,52.13388,34.14207,20,
409281,26.72456,95199,12.79628,113.75100,522.90601,-0.38764,-9.99243,0.05743,0.02107,-0.02810,0.01344,-3.15697,52.32388,33.44051,20,
410632,26.73024,95200,12.79651,113.98300,522.90601,-0.40199,-9.97807,0.07896,0.01680,-0.02596,0.01130,-3.78544,52.28003,33.35282,20,
411980,26.74759,95200,12.79722,113.75100,522.90601,-0.44506,-9.89911,0.07178,0.01955,-0.02779,0.01680,-3.18620,56.08009,34.88746,20,
413329,26.76306,95199,12.78808,113.44400,523.08038,-0.48814,-9.84168,0.03589,0.02260,-0.02963,0.01466,-2.99620,52.71850,34.14207,20,
414676,26.77221,95199,12.78845,113.82800,522.90601,-0.50249,-9.89193,0.02154,0.01955,-0.02688,0.01283,-2.76235,53.58083,33.92283,20,
416027,26.78167,95200,12.76930,114.60400,522.90601,-0.43071,-9.88475,0.13639,0.01833,-0.02566,0.01558,-2.77697,52.49927,33.45513,20,
417376,26.78830,95201,12.75004,114.29300,522.81616,-0.44506,-9.93500,0.05025,0.02107,-0.02871,0.01680,-3.25928,52.70389,34.09822,20,
418724,26.79398,95201,12.75515,113.59700,522.81616,-0.48814,-9.87757,0.07178,0.01985,-0.02841,0.01680,-3.27390,52.92312,34.36130,20,
420073,26.80218,95201,12.74572,114.29300,522.90601,-0.44506,-9.95653,0.05743,0.02321,-0.03238,0.01588,-2.86466,52.83543,33.65975,20,
421429,26.80282,95200,12.74086,113.59700,522.90601,-0.57428,-9.91346,0.07896,0.01710,-0.03115,0.01527,-2.66004,52.52850,33.99591,20,
422776,26.81197,95201,12.73635,113.44400,522.81616,-0.48814,-9.89911,0.04307,0.01955,-0.02963,0.01772,-2.39696,52.77697,34.17130,20,
424125,26.81922,95201,12.73664,113.90500,522.81616,-0.48096,-9.89911,0.04307,0.01802,-0.02932,0.01497,-2.98158,52.66004,33.33820,20,
425473,26.82553,95202,12.73690,113.59700,522.72894,-0.49531,-9.87039,0.00000,0.02046,-0.03176,0.01527,-2.74773,53.12774,34.11283,20,
426824,26.82995,95203,12.74196,113.06300,522.64178,-0.48096,-9.96371,0.07896,0.02107,-0.02963,0.01436,-2.68927,52.58696,34.22976,20,
428173,26.83879,95203,12.75208,113.52100,522.72894,-0.45224,-9.84168,0.00718,0.02413,-0.03024,0.01344,-2.76235,53.06927,33.71821,20,
429521,26.84604,95202,12.75725,113.29100,522.81616,-0.45942,-9.83450,0.05743,0.01680,-0.02963,0.01558,-2.92312,52.63081,33.57205,20,
430922,26.82869,95202,12.75655,112.98700,522.81616,-0.48814,-9.95653,0.01436,0.01955,-0.03054,0.01466,-2.55773,52.93774,34.41976,20,
432276,26.83437,95201,12.75678,113.06300,522.81616,-0.49531,-9.85604,0.06461,0.02260,-0.02749,0.01497,-2.87928,52.77697,34.02514,20,
433624,26.84951,95201,12.76228,113.98300,522.90601,-0.53121,-9.95653,0.02871,0.01833,-0.02932,0.01680,-2.93774,53.14236,34.31745,20,
434972,26.86214,95200,12.77256,113.90500,522.81616,-0.48814,-9.92064,0.05025,0.02046,-0.03115,0.01772,-2.83543,52.79158,33.35282,20,
436324,26.87003,95200,12.76311,114.13700,522.90601,-0.43789,-9.79861,0.05743,0.01894,-0.02749,0.01649,-2.95235,52.20696,33.35282,20,
437671,26.87539,95200,12.76333,113.82800,522.90601,-0.43071,-9.95653,0.00718,0.02199,-0.02993,0.01588,-3.27390,52.35312,33.57205,20,
439018,26.88391,95202,12.76855,113.67400,522.72894,-0.47378,-9.86322,0.04307,0.01344,-0.03054,0.01894,-3.06928,52.38234,33.96667,20,
440367,26.89085,95202,12.76395,114.44800,522.72894,-0.45942,-9.97807,0.03589,0.02016,-0.02993,0.01710,-2.57235,52.54311,34.41976,20,
441717,26.89432,95201,12.73968,114.99600,522.90601,-0.52403,-9.91346,0.05025,0.01955,-0.02993,0.01527,-3.34697,52.36773,32.87050,20,
443066,26.90032,95200,12.72039,114.76100,522.81616,-0.47378,-9.92064,0.08614,0.01985,-0.02688,0.01802,-2.38234,52.60158,34.08360,20,
444419,26.90379,95202,12.70588,114.60400,522.81616,-0.49531,-9.88475,0.10050,0.01741,-0.02779,0.01405,-2.86466,52.68927,33.36744,20,
445766,26.90852,95201,12.68167,114.91700,522.81616,-0.50249,-9.84886,0.04307,0.01680,-0.06322,0.01374,-2.89389,52.77697,33.29436,20,
447116,26.91578,95201,12.69172,114.76100,522.72894,-0.58146,-9.94936,0.03589,0.02016,-0.02871,0.01191,-3.28851,52.77697,34.31745,20,
448463,26.92335,95202,12.68715,114.21500,522.72894,-0.46660,-9.94218,0.07178,0.02077,-0.02627,0.01619,-2.71850,52.76235,33.86437,20,
449812,26.92777,95202,12.67269,114.52600,522.72894,-0.49531,-9.84886,0.02871,0.01772,-0.03390,0.01680,-3.25928,53.02543,34.17130,20,
451161,26.93250,95202,12.65824,114.83900,522.72894,-0.43071,-9.90629,0.10768,0.01833,-0.02993,0.01894,-2.76235,52.85004,34.62438,20,
452564,26.91294,95202,12.64769,114.37000,522.81616,-0.54556,-9.92064,0.04307,0.01833,-0.02505,0.01680,-2.67466,52.89389,34.77053,20,
453913,26.91768,95201,12.64300,114.76100,522.72894,-0.44506,-9.94218,0.11486,0.01924,-0.02718,0.01924,-3.33236,52.70389,33.92283,20,
455262,26.93377,95201,12.64853,114.29300,522.72894,-0.53121,-9.87757,0.00718,0.02260,-0.02718,0.01741,-3.36159,52.61620,33.92283,20,
456614,26.94386,95201,12.63918,114.44800,522.81616,-0.55992,-9.88475,0.02871,0.02138,-0.02596,0.01588,-2.95235,52.83543,33.01666,20,
457962,26.95301,95201,12.63954,114.52600,522.72894,-0.46660,-9.90629,0.06461,0.01802,-0.02993,0.01802,-3.36159,52.36773,34.01052,20,
459310,26.96090,95201,12.65450,115.23300,522.72894,-0.55274,-9.94936,0.02871,0.01833,-0.02871,0.01405,-3.52236,52.20696,34.37592,20,
460658,26.96564,95202,12.64005,114.68200,522.72894,-0.50967,-9.89193,0.10768,0.01802,-0.03146,0.01833,-2.82081,52.82081,34.06898,20,
462005,26.96974,95202,12.63046,115.15400,522.64178,-0.53839,-9.95653,0.05025,0.02077,-0.03360,0.01558,-3.42005,52.73312,33.74744,20,
463356,26.97195,95203,12.63055,115.15400,522.64178,-0.49531,-9.96371,0.00718,0.01833,-0.02657,0.01588,-3.08389,52.54311,34.34668,20,
464705,26.97762,95202,12.61614,114.91700,522.72894,-0.53839,-9.93500,0.03589,0.02016,-0.02963,0.01558,-3.17159,52.36773,34.59515,20,
466054,26.98425,95202,12.61153,114.91700,522.64178,-0.48814,-9.95653,0.06461,0.01863,-0.03207,0.01466,-3.15697,52.64543,34.36130,20,
467405,26.98804,95203,12.60680,114.99600,522.64178,-0.51685,-9.90629,0.07896,0.02138,-0.03054,0.01863,-3.09851,52.74773,33.95206,20,
468758,26.99088,95203,12.59228,114.99600,522.64178,-0.50249,-9.89911,0.03589,0.02107,-0.02871,0.01985,-2.87928,52.70389,33.80590,20,
470106,26.99688,95203,12.58764,114.99600,522.64178,-0.46660,-9.93500,0.02871,0.02260,-0.03024,0.01619,-3.08389,53.09851,34.40514,20,
471454,27.00382,95203,12.58792,114.99600,522.64178,-0.52403,-9.88475,0.05025,0.01680,-0.02749,0.01558,-3.63929,52.64543,34.02514,20,
472858,26.98331,95202,12.58222,114.68200,522.64178,-0.45224,-9.85604,0.06461,0.01955,-0.03054,0.01772,-2.79158,52.99620,34.21514,20,
474207,26.98930,95203,12.57759,114.37000,522.55457,-0.45942,-9.92064,0.05025,0.01924,-0.03054,0.01466,-2.93774,52.35312,33.35282,20,
475555,27.00445,95203,12.58794,114.76100,522.64178,-0.53839,-9.89911,0.05025,0.01955,-0.03146,0.01558,-2.85004,52.61620,34.87284,20,
476904,27.01392,95202,12.56882,115.07500,522.72894,-0.56710,-9.91346,0.07178,0.02169,-0.02902,0.01649,-3.39082,52.92312,34.72669,20,
478256,27.01959,95203,12.58367,114.83900,522.64178,-0.45224,-9.91346,0.02154,0.01619,-0.02657,0.01527,-3.14236,52.79158,34.75592,20,
479602,27.02654,95203,12.57420,115.15400,522.64178,-0.52403,-9.89911,0.02154,0.01955,-0.03024,0.01680,-3.01082,52.48466,33.38205,20,
480955,27.03001,95203,12.57921,115.15400,522.55457,-0.55274,-9.93500,0.05743,0.01985,-0.03024,0.01283,-2.71850,52.76235,34.40514,20,
482302,27.03474,95204,12.57453,114.83900,522.55457,-0.52403,-9.87039,0.04307,0.02016,-0.02932,0.01710,-2.63081,52.39696,33.61590,20,
483654,27.03916,95204,12.57958,114.91700,522.55457,-0.47378,-9.89911,0.07896,0.01924,-0.02932,0.01588,-2.90851,52.33850,34.75592,20,
485003,27.04579,95204,12.57497,115.78800,522.55457,-0.43071,-9.94218,0.10050,0.02230,-0.03085,0.01619,-3.11312,52.28003,34.37592,20,
486351,27.04989,95204,12.57025,115.15400,522.55457,-0.47378,-9.89193,0.02154,0.01985,-0.02993,0.01985,-3.15697,52.70389,33.49897,20,
487700,27.05431,95203,12.56555,115.62900,522.64178,-0.48814,-9.89193,0.01436,0.01802,-0.02688,0.01436,-3.15697,52.86466,34.63900,20,
489052,27.05683,95203,12.55103,115.39100,522.64178,-0.45224,-9.82014,0.00718,0.02291,-0.02566,0.01466,-3.39082,52.42619,33.99591,20,
490469,27.03190,95204,12.55491,114.44800,522.55457,-0.49531,-9.92782,0.05743,0.01924,-0.03024,0.01436,-3.68313,52.48466,32.69512,20,
491816,27.03852,95204,12.55030,115.15400,522.55457,-0.45942,-9.85604,0.01436,0.02566,-0.02932,0.01772,-2.99620,52.49927,33.39667,20,
493163,27.05904,95204,12.57062,114.91700,522.64178,-0.48096,-9.92782,0.02871,0.02016,-0.03268,0.01344,-2.86466,52.30927,33.63052,20,
494515,27.06598,95204,12.55627,115.78800,522.55457,-0.48096,-9.87039,0.04307,0.02291,-0.03024,0.01772,-2.64543,52.51389,34.03975,20,
495862,27.07671,95205,12.53232,115.47000,522.46741,-0.54556,-9.91346,0.02154,0.01710,-0.02932,0.01252,-2.80620,52.03157,32.94358,20,
497209,27.08333,95204,12.52770,115.94800,522.64178,-0.54556,-9.82732,0.05743,0.01863,-0.02932,0.01588,-2.09003,52.85004,33.52821,20,
498557,27.08649,95203,12.49858,116.26900,522.55457,-0.45224,-9.94218,0.03589,0.01741,-0.02810,0.01772,-3.08389,53.06927,33.70359,20,
499907,27.08933,95204,12.49382,115.94800,522.55457,-0.56710,-9.89193,0.04307,0.02138,-0.03146,0.01466,-3.12774,52.26542,33.35282,20,
501257,27.09501,95204,12.48430,115.70800,522.46741,-0.43789,-9.82732,0.03589,0.01894,-0.02627,0.01283,-3.33236,52.54311,32.84127,20,
502606,27.10163,95205,12.47482,115.70800,522.46741,-0.44506,-9.91346,0.00718,0.02321,-0.02596,0.01649,-3.31774,52.98159,34.05437,20,
503958,27.10227,95204,12.47484,115.78800,522.46741,-0.42353,-9.91346,0.04307,0.02046,-0.02993,0.01558,-2.61619,52.73312,34.59515,20,
505306,27.10732,95205,12.47991,115.78800,522.46741,-0.48814,-10.02114,0.06461,0.01924,-0.02810,0.01772,-3.18620,52.66004,33.71821,20,
506654,27.11331,95205,12.47528,115.54900,522.55457,-0.58863,-9.83450,0.02871,0.01772,-0.03574,0.01436,-3.53698,52.11926,34.78515,20,
508003,27.11962,95204,12.47553,115.86800,522.46741,-0.54556,-9.94218,0.06461,0.01741,-0.02902,0.01497,-3.33236,52.80620,34.27361,20,
509355,27.12341,95205,12.48055,115.39100,522.55457,-0.53121,-9.89193,0.03589,0.01741,-0.02932,0.01619,-2.92312,52.96697,34.39053,20,
510703,27.12688,95205,12.47094,114.99600,522.46741,-0.54556,-9.92782,0.07178,0.02199,-0.02993,0.01527,-3.36159,52.98159,35.10669,20,
512100,27.10921,95204,12.47511,115.78800,522.46741,-0.48096,-9.83450,-0.02871,0.02016,-0.02566,0.01436,-3.18620,52.47004,34.20052,20,
513448,27.11300,95204,12.48501,114.99600,522.55457,-0.46660,-9.89193,0.00718,0.01802,-0.02657,0.01466,-3.23005,52.95235,34.12745,20,
514804,27.12278,95204,12.47565,115.23300,522.55457,-0.56710,-9.89911,0.06461,0.01985,-0.02993,0.01436,-3.52236,52.48466,33.92283,20,
516152,27.13351,95204,12.48583,115.78800,522.55457,-0.43071,-9.99243,0.03589,0.01924,-0.03085,0.01558,-3.23005,52.92312,33.77667,20,
517500,27.14139,95203,12.48614,115.78800,522.55457,-0.47378,-9.94218,0.00000,0.01802,-0.02963,0.01405,-3.18620,52.47004,33.45513,20,
518848,27.14739,95204,12.48638,115.23300,522.46741,-0.48096,-9.99243,0.03589,0.02260,-0.02718,0.01680,-2.68927,52.85004,32.81204,20,
520198,27.15370,95204,12.50126,114.83900,522.55457,-0.55992,-9.90629,0.05025,0.01833,-0.02688,0.01436,-3.20082,52.77697,33.54282,20,
521546,27.15749,95204,12.50628,115.31200,522.55457,-0.43071,-9.87039,0.03589,0.01924,-0.02932,0.01222,-3.33236,53.02543,33.60129,20,
522895,27.16191,95205,12.50158,115.31200,522.46741,-0.45942,-9.94936,0.03589,0.02107,-0.03207,0.01649,-3.44928,52.58696,33.00204,20,
524241,27.16601,95204,12.50662,115.47000,522.55457,-0.41635,-9.95653,0.02871,0.02199,-0.03207,0.01374,-3.34697,52.71850,34.03975,20,
525598,27.16601,95204,12.50662,115.31200,522.55457,-0.48096,-9.76989,0.07896,0.02474,-0.02841,0.01619,-3.24467,52.73312,33.63052,20,
526946,27.17200,95204,12.51661,114.68200,522.55457,-0.48814,-9.85604,0.05025,0.02046,-0.02932,0.01619,-3.36159,52.52850,34.09822,20,
528293,27.17611,95204,12.52653,115.70800,522.55457,-0.56710,-9.82732,0.02871,0.02016,-0.02779,0.01558,-2.83543,52.51389,34.39053,20,
529640,27.18305,95204,12.54143,114.68200,522.55457,-0.57428,-9.92064,0.02871,0.02138,-0.03054,0.01558,-3.15697,52.32388,33.83514,20,
530992,27.18463,95204,12.53662,114.99600,522.46741,-0.54556,-9.87757,0.09332,0.01802,-0.02902,0.01680,-3.15697,52.83543,34.49284,20,
532340,27.18936,95205,12.55144,115.15400,522.38019,-0.47378,-9.96371,0.01436,0.02291,-0.03085,0.01497,-3.30313,52.70389,34.78515,20,
533754,27.16317,95206,12.55527,114.52600,522.38019,-0.41635,-9.94936,0.07178,0.01802,-0.03238,0.01710,-3.47852,52.70389,33.80590,20,
535106,27.16664,95206,12.56517,114.06000,522.38019,-0.40917,-9.88475,0.10768,0.02230,-0.02749,0.01588,-3.49313,52.79158,34.50745,20,
536455,27.18273,95205,12.57069,114.68200,522.46741,-0.45224,-9.85604,0.04307,0.02046,-0.03176,0.01680,-3.47852,52.67466,34.33207,20,
537807,27.19220,95205,12.57594,114.37000,522.46741,-0.50967,-9.84168,0.07178,0.01924,-0.02963,0.01710,-2.87928,53.17159,34.08360,20,
539155,27.19946,95204,12.57624,114.68200,522.46741,-0.49531,-9.88475,0.12921,0.01985,-0.02932,0.01619,-2.85004,52.95235,33.51360,20,
540505,27.20577,95205,12.58137,114.60400,522.46741,-0.48096,-9.86322,0.01436,0.01985,-0.02963,0.01497,-3.08389,52.63081,34.24437,20,
541853,27.21082,95204,12.59133,114.52600,522.55457,-0.33739,-9.90629,0.08614,0.02169,-0.02871,0.01863,-3.11312,53.21543,34.44899,20,
543200,27.21681,95205,12.58181,115.39100,522.38019,-0.50967,-9.86322,0.03589,0.02199,-0.02810,0.01436,-3.52236,52.93774,34.74130,20,
544547,27.22091,95205,12.55270,115.78800,522.46741,-0.56710,-9.93500,0.06461,0.02107,-0.02871,0.01344,-3.20082,53.69775,33.38205,20,
545898,27.22344,95205,12.54792,115.94800,522.46741,-0.48814,-9.87039,0.07896,0.01955,-0.02688,0.01558,-2.85004,52.73312,33.76206,20,
547247,27.22596,95205,12.52851,115.54900,522.46741,-0.46660,-9.90629,0.04307,0.01741,-0.02810,0.01252,-3.50775,53.46390,32.62204,20,
548595,27.22943,95205,12.51890,115.62900,522.46741,-0.53121,-9.97089,0.07178,0.02046,-0.03268,0.01436,-2.98158,52.89389,33.82052,20,
549948,27.22817,95205,12.48472,115.78800,522.46741,-0.41635,-9.91346,0.03589,0.02230,-0.02993,0.01741,-2.77697,52.86466,33.42590,20,
551299,27.23259,95204,12.45077,116.75300,522.46741,-0.43789,-9.97807,0.01436,0.02321,-0.03238,0.01558,-2.80620,52.36773,33.86437,20,
552647,27.23701,95205,12.44120,116.34900,522.46741,-0.49531,-9.89193,0.02154,0.02291,-0.02902,0.01527,-2.47004,52.58696,34.14207,20,
553996,27.24269,95205,12.41706,116.51000,522.46741,-0.56710,-9.88475,0.04307,0.01985,-0.02871,0.01497,-3.17159,52.77697,32.95820,20,
555343,27.24679,95204,12.40748,116.75300,522.64178,-0.48096,-9.97089,0.02154,0.01772,-0.02779,0.01374,-2.61619,53.01081,33.44051,20,
556695,27.24931,95203,12.36374,117.40500,522.55457,-0.55992,-9.92782,0.02154,0.02199,-0.02963,0.01894,-3.04005,52.96697,33.29436,20,
558044,27.25436,95204,12.34932,116.51000,522.46741,-0.48814,-9.95653,0.00718,0.01924,-0.02871,0.01466,-2.99620,53.36159,34.34668,20,
559392,27.25878,95205,12.33002,117.48700,522.46741,-0.46660,-9.76989,0.05025,0.01924,-0.02779,0.01649,-3.02543,52.41158,35.20900,20,
560741,27.26193,95205,12.31067,117.48700,522.46741,-0.51685,-9.92064,0.10768,0.02260,-0.02902,0.01802,-2.93774,52.68927,34.22976,20,
562097,27.26035,95205,12.29114,116.99700,522.46741,-0.48814,-9.85604,0.04307,0.01985,-0.02963,0.01527,-2.61619,52.48466,33.99591,20,
563445,27.26540,95205,12.27674,117.32300,522.46741,-0.46660,-9.88475,0.05743,0.02260,-0.02810,0.01466,-3.28851,52.82081,34.03975,20,
564794,27.26888,95204,12.26228,117.40500,522.38019,-0.51685,-9.88475,0.08614,0.02138,-0.03054,0.01680,-3.25928,52.39696,33.60129,20,
566141,27.27329,95206,12.25272,117.40500,522.38019,-0.49531,-9.91346,0.06461,0.01894,-0.03268,0.01497,-3.31774,52.77697,32.56358,20,
567493,27.27140,95206,12.23805,117.56900,522.46741,-0.46660,-9.90629,0.10768,0.02199,-0.03085,0.01649,-3.04005,53.08389,33.10435,20,
568842,27.27329,95206,12.23326,117.98200,522.46741,-0.45224,-9.97089,0.07178,0.02046,-0.03146,0.01497,-3.01082,52.16311,30.42970,20,
570188,27.27866,95205,12.21888,117.89900,522.46741,-0.51685,-9.93500,0.05743,0.01802,-0.03115,0.01863,-2.93774,53.34697,34.06898,20,
571539,27.28244,95204,12.20930,116.99700,522.46741,-0.45942,-9.84168,0.01436,0.02077,-0.02902,0.01497,-3.05466,52.14850,34.34668,20,
572888,27.28655,95205,12.20459,117.73400,522.38019,-0.38764,-9.83450,0.00718,0.01833,-0.02963,0.01527,-3.25928,52.55773,33.57205,20,
574287,27.26256,95206,12.17935,117.07800,522.46741,-0.47378,-9.81297,0.03589,0.02107,-0.03085,0.01649,-2.86466,52.76235,33.82052,20,
575636,27.26572,95205,12.17461,117.40500,522.46741,-0.49531,-9.94218,0.05743,0.02230,-0.02871,0.01680,-3.28851,52.44080,33.42590,20,
576988,27.27708,95205,12.16533,116.91500,522.38019,-0.47378,-9.90629,-0.00718,0.01985,-0.02718,0.01436,-3.31774,52.19234,33.70359,20,
578335,27.28655,95205,12.17056,117.73400,522.55457,-0.54556,-9.97089,0.05025,0.01985,-0.02718,0.01344,-2.58696,52.73312,33.70359,20,
579684,27.29317,95205,12.15137,117.89900,522.46741,-0.45224,-9.82732,0.05743,0.01924,-0.03176,0.01466,-3.23005,51.85619,34.05437,20,
581030,27.29854,95205,12.15157,117.81700,522.46741,-0.48814,-9.92064,0.10050,0.02138,-0.03085,0.01436,-3.55159,53.21543,33.57205,20,
582382,27.30012,95205,12.13705,118.14800,522.46741,-0.45942,-9.92064,0.02871,0.01741,-0.03085,0.01252,-2.87928,52.82081,34.53669,20,
583731,27.30264,95205,12.12743,118.23100,522.46741,-0.41635,-9.91346,0.01436,0.02077,-0.02902,0.01558,-3.01082,52.67466,33.84975,20,
585079,27.30579,95205,12.12755,117.24100,522.46741,-0.53121,-9.90629,0.07896,0.01833,-0.02718,0.01649,-2.82081,52.35312,33.74744,20,
586432,27.30832,95206,12.11307,117.40500,522.38019,-0.50249,-9.91346,0.01436,0.02260,-0.02932,0.01466,-3.01082,52.73312,34.56592,20,
587783,27.31211,95205,12.09864,117.89900,522.46741,-0.42353,-9.87757,0.04307,0.01924,-0.02841,0.01313,-2.74773,52.90850,33.01666,20,
589131,27.31905,95205,12.09405,118.39700,522.46741,-0.48096,-9.87757,0.02154,0.02107,-0.02810,0.01802,-3.15697,52.85004,33.22128,20,
590480,27.32283,95206,12.08448,117.89900,522.38019,-0.47378,-9.94936,0.01436,0.02077,-0.03115,0.01680,-2.49927,52.25080,34.24437,20,
591827,27.32378,95206,12.06508,117.81700,522.46741,-0.54556,-9.97089,0.04307,0.01588,-0.03390,0.01619,-2.95235,52.39696,34.14207,20,
593180,27.32125,95206,12.05042,117.89900,522.29297,-0.46660,-9.89193,0.06461,0.01833,-0.03054,0.01619,-3.27390,52.60158,33.61590,20,
594528,27.32220,95205,12.04074,118.06500,522.38019,-0.48096,-9.92064,0.05743,0.01558,-0.02810,0.01405,-3.27390,52.98159,33.39667,20,
595875,27.32630,95205,12.02633,118.39700,522.46741,-0.47378,-9.93500,0.01436,0.01894,-0.02902,0.01527,-3.01082,52.77697,33.84975,20,
597224,27.33009,95205,12.02647,118.56400,522.38019,-0.44506,-9.86322,0.09332,0.02077,-0.02810,0.01649,-3.05466,52.85004,33.68898,20,
598580,27.32852,95205,12.02641,118.23100,522.38019,-0.38046,-9.93500,0.11486,0.02413,-0.02810,0.01619,-3.33236,52.79158,34.50745,20,
599925,27.33703,95206,12.01217,118.39700,522.38019,-0.50249,-9.83450,0.05743,0.01924,-0.02841,0.01802,-2.73312,52.74773,34.03975,20,
601274,27.34051,95206,12.01231,118.48100,522.38019,-0.48814,-9.91346,0.05743,0.02352,-0.02841,0.01497,-3.34697,53.09851,34.41976,20,
602621,27.34145,95206,12.01234,118.23100,522.29297,-0.44506,-9.93500,0.09332,0.01985,-0.03115,0.01161,-3.46390,52.70389,34.17130,20,
603973,27.34366,95206,12.02700,117.89900,522.38019,-0.48814,-9.88475,0.07896,0.01833,-0.02963,0.01405,-3.28851,52.44080,34.20052,20,
605322,27.34745,95206,12.00772,117.98200,522.38019,-0.38046,-9.86322,0.02871,0.01985,-0.03024,0.01588,-2.99620,51.95849,34.17130,20,
606670,27.35123,95205,12.02728,117.89900,522.46741,-0.43789,-9.83450,0.05025,0.02291,-0.02779,0.01436,-3.28851,52.16311,34.08360,20,
608021,27.35155,95205,12.03216,117.56900,522.38019,-0.40199,-9.87039,0.02871,0.02169,-0.03268,0.01710,-3.53698,52.49927,34.02514,20,
609446,27.31652,95206,12.02595,116.99700,522.46741,-0.48814,-9.98525,0.02871,0.01833,-0.02779,0.01527,-3.14236,53.06927,34.25899,20,
610794,27.32125,95206,12.04556,117.24100,522.38019,-0.40199,-9.93500,0.33739,0.02657,0.00611,-0.00367,-3.46390,53.01081,33.60129,20,
612143,27.33830,95206,12.04621,117.73400,522.29297,3.29492,-10.38006,-0.01436,0.02443,-0.17287,-0.14508,-5.34931,53.30313,32.11049,20,
613492,27.34934,95206,12.05635,116.99700,522.38019,-6.98465,-7.04208,0.81117,0.11576,-0.10812,-0.70005,-27.38965,46.02456,27.75504,20,
614840,27.35250,95207,12.07105,117.56900,522.38019,-9.64786,-3.53898,3.18724,1.14201,-0.45021,-1.68080,-35.00438,28.26659,34.12745,20,
616188,27.35628,95207,12.05177,117.73400,522.38019,-10.22932,-2.42632,-0.20100,0.55008,-0.08796,0.16738,-38.89214,8.93014,28.41274,20,
617537,27.35944,95206,12.06646,117.40500,522.38019,-8.97309,-0.14357,1.06959,0.19090,0.05620,0.01405,-38.54136,11.15171,29.18737,20,
618889,27.36386,95204,12.08120,116.75300,522.55457,-9.87757,-1.69412,0.27278,0.25779,-0.01772,0.02596,-38.33675,15.50716,29.71354,20,
620237,27.37111,95205,12.09120,117.07800,522.55457,-10.09293,-0.36610,0.15793,0.77366,0.06475,-0.13378,-37.73750,12.64250,31.90587,20,
621590,27.37301,95204,12.08642,116.99700,522.46741,-9.94218,-3.27338,0.78963,-0.47250,-0.00886,0.35980,-39.84215,13.84098,31.21894,20,
622939,27.37774,95205,12.11090,117.40500,522.46741,-10.02114,-0.27278,1.53619,0.12737,-0.12889,-0.20617,-42.29757,8.36013,32.88512,20,
624290,27.38121,95205,12.12561,116.67200,522.46741,-9.76989,-2.69910,2.06740,-0.37538,0.04856,0.13286,-42.99912,17.23180,31.13125,20,
625638,27.38815,95205,12.14047,116.67200,522.46741,-9.97089,-1.30648,1.52901,0.36255,-0.04215,0.25107,-41.28910,16.86641,29.78661,20,
626984,27.39383,95205,12.15041,116.91500,522.46741,-9.77707,-1.08395,1.27777,0.07086,-0.02627,0.13347,-45.54224,16.31102,29.08506,20,
628333,27.39857,95204,12.17491,116.83400,522.55457,-9.97089,-0.07896,0.86859,-0.37751,-0.02871,-0.24343,-41.75680,14.41099,31.26279,20,
629685,27.40172,95205,12.19935,116.59100,522.46741,-9.94936,-1.65105,0.38764,-0.14813,0.02963,0.03512,-43.43759,19.19029,36.10056,20,
631031,27.41056,95205,12.20943,116.26900,522.46741,-10.43749,0.57428,-0.38046,0.40317,-0.02107,-0.39431,-36.23210,12.87635,33.54282,20,
632378,27.41750,95205,12.22429,116.34900,522.46741,-9.98525,1.32802,-0.60299,0.22663,-0.10415,-0.05437,-32.91435,1.62233,33.67437,20,
633734,27.41718,95204,12.25835,115.94800,522.46741,-9.96371,-0.10768,0.05743,0.13592,0.06139,0.17226,-33.45513,-1.25694,31.07279,20,
635082,27.42223,95205,12.28776,115.70800,522.55457,-10.11446,-0.30867,0.54556,-0.32009,-0.10629,0.01894,-37.00673,8.84244,31.27740,20,
636430,27.42823,95204,12.30747,115.23300,522.55457,-10.14318,-0.17228,0.78245,0.28100,-0.31337,0.16371,-38.11751,13.73867,30.15200,20,
637778,27.43328,95205,12.32715,115.47000,522.38019,-9.91346,-1.52184,-1.14855,-0.13744,-0.07483,0.04673,-33.76206,17.14411,37.25519,20,
639130,27.43548,95207,12.35159,114.68200,522.38019,-10.01396,-0.86142,-1.03370,-0.29352,0.05253,0.19303,-33.92283,14.39638,37.95674,20,
640478,27.43927,95206,12.36148,114.44800,522.38019,-10.20778,-1.16291,0.30150,-0.00031,0.14172,0.37721,-37.07980,17.49488,34.20052,20,
641826,27.44558,95206,12.38122,115.23300,522.38019,-10.11446,-0.26560,-0.07178,0.37996,0.18479,0.04276,-36.75826,16.61795,33.71821,20,
643175,27.45095,95205,12.41068,115.39100,522.46741,-10.11446,-0.29432,-0.27996,0.13500,-0.18479,-0.13439,-36.01286,11.64864,34.93131,20,
644578,27.43012,95205,12.40498,114.60400,522.46741,-9.89193,-0.58146,0.08614,0.40928,-0.26909,-0.10263,-37.32827,17.21719,33.79129,20,
645931,27.43296,95205,12.40510,114.83900,522.46741,-9.87039,-1.60080,1.17009,-0.58093,-0.04062,0.16616,-37.73750,17.31950,30.61970,20,
647278,27.44684,95204,12.42027,115.07500,522.55457,-10.00678,-0.13639,0.51685,0.15913,0.12339,0.08430,-36.64133,12.11634,33.76206,20,
648627,27.45757,95204,12.43532,114.37000,522.55457,-9.94936,-0.25842,0.38764,0.67531,-0.00977,0.13561,-36.40748,11.99942,34.87284,20,
649978,27.46388,95205,12.44045,114.52600,522.46741,-9.92064,-0.81117,0.25125,0.30849,-0.10690,-0.03146,-36.74364,13.06635,34.09822,20,
651326,27.47020,95205,12.44070,114.52600,522.38019,-10.04986,-0.29432,-0.10768,0.02932,-0.05131,-0.07819,-35.89594,10.66939,35.03362,20,
652675,27.47651,95206,12.44095,114.68200,522.46741,-9.99243,0.38046,-0.68195,0.03512,-0.02107,-0.08674,-34.33207,7.14703,36.01286,20,
654023,27.48029,95206,12.46061,114.76100,522.46741,-10.07139,-0.02871,-0.28714,-0.02382,0.06445,0.14050,-34.91669,9.66092,34.21514,20,
655375,27.48281,95205,12.44608,114.60400,522.46741,-9.80579,-2.80678,0.17228,-0.01466,-0.11301,-0.08399,-36.46595,19.70184,33.63052,20,
656724,27.48976,95205,12.46098,114.29300,522.55457,-9.95653,0.25842,0.45942,-0.04001,0.09865,0.24129,-36.55364,8.97398,32.32973,20,
658076,27.49260,95205,12.46110,114.21500,522.46741,-9.95653,-0.28714,0.13639,-0.08827,0.01161,0.14142,-35.82286,15.82870,34.71207,20,
659426,27.49701,95205,12.46615,114.83900,522.46741,-9.92064,-0.96191,0.29432,-0.04337,0.00825,0.05528,-36.40748,19.39491,34.17130,20,
660772,27.50396,95204,12.46642,114.83900,522.46741,-9.94936,-1.24187,0.46660,0.08827,-0.02627,-0.02107,-36.75826,21.70418,32.60743,20,
662120,27.50806,95205,12.46659,114.21500,522.55457,-9.61915,-3.04367,0.41635,0.83200,-0.21350,-0.29138,-37.57673,26.68810,30.97047,20,
663467,27.51311,95204,12.45703,114.83900,522.55457,-10.11446,0.00000,0.25842,-0.06597,0.01741,0.05040,-36.97749,17.62642,32.85589,20,
664826,27.51153,95204,12.44722,114.83900,522.55457,-10.02114,-0.45942,0.53121,-0.00702,-0.02016,0.05315,-36.84595,18.54721,33.73283,20,
666175,27.51500,95205,12.44735,114.68200,522.46741,-10.09293,-0.01436,0.15075,0.02657,-0.01405,0.02016,-36.29056,15.03946,34.56592,20,
667524,27.52005,95205,12.44268,114.68200,522.38019,-10.26521,0.89013,-0.50967,0.03360,-0.12034,-0.04826,-36.26133,15.24408,33.86437,20,
668875,27.52415,95206,12.43796,114.60400,522.38019,-10.02114,-1.83051,0.38764,0.01924,-0.08216,-0.03085,-36.42210,15.88717,34.14207,20,
670227,27.52794,95205,12.43812,114.21500,522.46741,-7.47278,1.65823,5.23310,0.53939,0.02779,-0.25534,-37.63520,18.13797,31.26279,20,
671576,27.53299,95204,12.45295,114.52600,522.55457,-10.20060,0.62453,0.03589,0.18998,-0.19273,0.09896,-35.63285,15.66793,33.65975,20,
672923,27.53741,95205,12.44824,114.21500,522.46741,-10.04268,0.10768,0.40917,0.37385,0.02505,0.09468,-36.93365,16.10640,33.26513,20,
674272,27.54151,95205,12.44841,114.44800,522.46741,-9.92782,0.17946,1.01216,0.05925,-0.03757,-0.00519,-37.22596,15.22947,31.74510,20,
675623,27.54403,95205,12.45338,114.44800,522.46741,-10.39442,1.71565,0.63888,-0.06964,-0.23030,-0.25809,-37.72289,14.14791,31.43818,20,
676972,27.54845,95204,12.46332,114.52600,522.55457,-10.02114,0.39482,0.80399,0.04246,-0.04826,0.02291,-37.72289,13.78252,30.47355,20,
678375,27.52952,95204,12.45281,113.67400,522.55457,-9.84168,0.00000,0.99781,0.41630,-0.03024,0.11087,-37.75212,14.95177,30.83894,20,
679724,27.53362,95204,12.46273,113.75100,522.55457,-9.87039,-0.99063,1.14855,-0.26603,-0.04704,0.03268,-37.75212,17.67027,31.01432,20,
681079,27.54088,95204,12.45326,114.68200,522.46741,-9.91346,-0.04307,0.68913,0.15547,-0.04887,0.12187,-37.62058,17.87489,29.84507,20,
682427,27.55098,95203,12.45366,114.37000,522.55457,-10.15035,-0.35174,1.49312,0.09988,-0.09438,0.03635,-38.10289,18.72260,30.56124,20,
683776,27.55918,95204,12.43935,114.52600,522.46741,-10.07857,-0.30867,1.24905,0.13470,-0.05986,-0.06658,-38.20520,19.74569,30.45893,20,
685127,27.56454,95205,12.43469,114.91700,522.46741,-9.65504,-0.34457,1.93819,-0.09957,-0.10812,0.15730,-38.73137,20.15493,29.23122,20,
686476,27.56864,95205,12.42510,114.99600,522.38019,-9.24587,-2.08893,2.99342,-0.02688,0.29535,0.57849,-36.78749,37.19672,19.58492,20,
687824,27.57401,95204,12.42043,115.23300,522.55457,-8.70030,-4.23530,4.09891,-0.27917,0.82192,0.04459,-30.88278,47.03303,9.52938,20,
689173,27.57748,95204,12.40107,115.23300,522.55457,-0.12921,0.05743,9.98525,0.01313,-0.02688,0.01619,-0.40924,36.45133,-26.67349,20,
690525,27.58064,95205,12.40119,115.47000,522.46741,-0.17946,-0.02154,9.93500,0.02138,-0.03176,0.01466,-0.61386,36.05671,-28.64660,20,
691877,27.58379,95204,12.40132,114.91700,522.46741,-0.17946,0.00718,10.02832,0.02046,-0.03115,0.01558,-0.20462,36.31979,-27.47734,20,
693225,27.59357,95204,12.40658,114.91700,522.46741,-0.27278,0.06461,9.98525,0.02046,-0.03482,0.01649,-0.96463,36.29056,-28.38351,20,
694574,27.60273,95205,12.39719,114.68200,522.38019,-0.28714,0.01436,9.92064,0.01710,-0.02871,0.01741,-0.36539,36.62672,-28.00351,20,
695925,27.60903,95206,12.41695,114.21500,522.38019,-0.23689,0.09332,9.92064,0.01985,-0.02688,0.01649,-0.35077,36.46595,-27.90120,20,
697273,27.61724,95205,12.42215,113.90500,522.38019,-0.28714,0.02154,9.91346,0.02230,-0.02688,0.02566,-0.48232,36.49517,-27.79889,20,
698621,27.62513,95205,12.44685,114.06000,522.46741,-0.20100,0.05743,9.96371,0.01894,-0.02932,0.01344,0.13154,37.02134,-28.22274,20,
699970,27.63270,95204,12.46667,114.29300,522.46741,-0.20818,0.04307,10.01396,0.01680,-0.03024,0.01558,-0.52616,36.97749,-28.10582,20,
701320,27.63964,95204,12.48159,114.06000,522.55457,-0.24407,0.10050,10.04268,0.01955,-0.02718,0.01436,-0.20462,36.67057,-28.89506,20,
702668,27.64564,95204,12.50135,113.75100,522.46741,-0.18664,0.02871,10.02832,0.01863,-0.03054,0.01466,-0.10231,36.74364,-28.39813,20,
704019,27.65290,95205,12.51628,113.29100,522.38019,-0.26560,0.08614,10.01396,0.01924,-0.02932,0.01527,-0.35077,36.88980,-28.85121,20,
705366,27.66173,95205,12.52152,113.06300,522.46741,-0.30150,0.01436,10.00678,0.02199,-0.03360,0.01955,-0.38001,36.11517,-28.33967,20,
706715,27.66930,95205,12.53647,113.75100,522.46741,-0.21535,0.06461,10.07139,0.01710,-0.03024,0.01191,-0.51155,36.49517,-28.12043,20,
708063,27.67846,95205,12.54660,113.29100,522.46741,-0.14357,0.06461,9.98525,0.01894,-0.03176,0.01588,-0.35077,36.37825,-28.03274,20,
709411,27.68445,95204,12.55661,113.44400,522.46741,-0.30867,0.03589,10.04268,0.00641,-0.02932,0.01344,-0.39462,36.71441,-28.04736,20,
710760,27.69139,95204,12.55201,113.52100,522.46741,-0.07896,-0.07178,10.03550,0.00733,-0.02902,0.00641,-0.02923,36.74364,-28.14966,20,
712110,27.69770,95204,12.55226,113.21500,522.55457,-0.38046,0.22971,9.66940,0.00977,-0.02657,0.01772,-0.76001,36.93365,-28.06197,20,
713512,27.68035,95204,12.54668,112.53300,522.55457,-0.27278,1.06241,10.26521,0.14936,-0.01619,-0.15088,-0.07308,37.40134,-28.09120,20,
714861,27.68824,95204,12.55188,113.44400,522.55457,0.06461,0.27996,9.15255,-0.11881,-0.05070,-0.23274,3.12774,37.47442,-28.86583,20,
716217,27.70212,95203,12.53778,113.06300,522.64178,-0.68913,-0.05743,9.05205,-0.08247,0.06567,0.64324,5.52470,36.71441,-28.36890,20,
717564,27.71758,95202,12.54329,113.13900,522.64178,-0.13639,0.15793,9.97807,0.02046,-0.02871,0.00947,6.21163,36.64133,-28.74890,20,
718913,27.73115,95204,12.52918,113.13900,522.46741,0.01436,0.12203,10.04986,0.01985,-0.03146,0.01497,5.96317,36.87518,-28.36890,20,
720261,27.74125,95204,12.52958,113.21500,522.46741,-0.07178,0.04307,9.97089,0.01863,-0.02993,0.01802,6.29933,36.74364,-28.09120,20,
721612,27.74882,95204,12.52012,113.13900,522.46741,-0.02154,0.07178,10.02114,0.01863,-0.02810,0.01588,6.34317,36.68518,-28.50044,20,
722961,27.75860,95204,12.51074,113.52100,522.46741,-0.06461,0.08614,9.99961,0.02199,-0.02810,0.01680,5.59778,36.50979,-28.71967,20,
724307,27.77028,95203,12.51121,113.44400,522.55457,-0.02871,0.09332,10.02114,0.02077,-0.02902,0.01649,6.16779,36.64133,-28.26659,20,
725654,27.77911,95203,12.49692,113.44400,522.55457,0.02154,0.12921,9.99961,0.02016,-0.02841,0.01527,6.27010,36.52441,-28.67583,20,
727007,27.78448,95204,12.49225,113.29100,522.55457,-0.12203,0.18664,10.00678,0.01802,-0.03054,0.01894,6.43087,36.55364,-29.04122,20,
728358,27.78953,95203,12.48268,113.44400,522.55457,0.25125,-1.12702,9.89193,-0.13958,-0.08094,0.00794,6.38702,36.55364,-29.02660,20,
729707,27.79710,95203,12.48299,113.13900,522.72894,0.38046,0.30150,9.81297,0.91783,-0.59773,-0.62980,5.39316,38.71675,-27.60889,20,
731055,27.80562,95199,12.47356,113.52100,523.08038,0.11486,-1.68694,9.56890,0.02657,0.16066,0.03665,3.62467,45.96609,-20.54955,20,
732406,27.80941,95197,12.45907,113.59700,523.16760,-0.72503,-1.60798,10.08575,0.01894,-0.04459,0.14508,0.29231,43.51067,-23.73575,20,
733755,27.81603,95195,12.45445,113.52100,523.34198,0.05025,-1.09831,10.05703,-0.11270,-0.11332,0.01741,4.51622,42.57527,-24.30576,20,
735104,27.82203,95195,12.43517,113.44400,523.25476,0.79681,0.55274,9.50429,0.04368,0.00397,-0.05956,10.93248,36.74364,-25.91348,20,
736452,27.82771,95194,12.43539,113.59700,523.42920,0.06461,-0.33021,9.64786,0.03971,-0.09407,-0.04093,7.16165,38.67290,-26.48348,20,
737804,27.83023,95194,12.41109,113.44400,523.42920,-2.44068,-0.01436,9.78425,-0.00214,-0.33353,-0.08186,-4.38468,38.70213,-25.43116,20,
739152,27.83780,95193,12.41627,113.29100,523.51636,-1.68694,-0.25125,9.67657,0.12462,0.14966,-0.18509,-6.27010,38.11751,-25.32885,20,
740505,27.84380,95194,12.41651,113.21500,523.42920,-1.44287,0.61017,8.39163,-0.05406,0.87140,-0.28558,0.21923,34.15668,-29.39199,20,
741853,27.85264,95194,12.40710,113.44400,523.51636,-0.83270,-0.87577,9.92782,0.16646,-0.45479,-0.06384,1.09617,36.01286,-27.76966,20,
743204,27.85674,95193,12.40726,113.29100,523.51636,0.38046,0.35174,10.11446,-0.03451,-0.17410,0.13806,5.43701,36.61210,-28.47121,20,
744553,27.86621,95193,12.38812,113.52100,523.60620,0.45942,-0.13639,9.18126,-0.47098,0.13775,-0.32284,8.91552,34.60976,-28.70506,20,
745902,27.87220,95191,12.37861,113.75100,523.69342,-0.52403,-0.35174,9.71965,0.33537,-0.36927,-0.32284,3.06928,39.97369,-25.34347,20,
747249,27.87819,95190,12.37396,113.59700,523.78058,0.23689,0.61017,10.29392,-0.24893,-0.14691,-0.09774,8.28705,35.51593,-27.24350,20,
748657,27.85832,95191,12.35854,113.36800,523.69342,0.54556,0.03589,10.08575,0.08919,-0.09988,-0.02107,6.03625,36.52441,-27.11196,20,
750006,27.86621,95190,12.35885,112.91100,523.78058,0.40199,0.51685,9.81297,-0.09652,-0.13011,0.03451,6.63549,34.79977,-28.63198,20,
751354,27.88577,95191,12.36938,112.98700,523.69342,0.54556,0.99063,9.73400,0.08522,0.05131,0.01436,5.90471,33.07512,-29.46507,20,
752710,27.89524,95191,12.37464,112.53300,523.69342,0.39482,0.76810,9.93500,0.06078,-0.06139,0.02443,5.91932,33.35282,-29.02660,20,
754058,27.90470,95190,12.38477,113.06300,523.78058,0.37328,0.76810,9.90629,0.03940,-0.02199,0.01374,5.56855,33.55744,-30.22508,20,
755406,27.91480,95190,12.39005,112.68400,523.78058,0.80399,0.48814,10.15035,0.26817,0.02321,0.27489,7.90704,33.48436,-30.07892,20,
756754,27.92332,95190,12.40991,112.98700,523.78058,1.14855,0.21535,9.65504,-0.01924,0.11820,0.04826,17.87489,34.43438,-26.86349,20,
758107,27.92932,95191,12.40526,112.75900,523.69342,2.30429,0.63171,9.57608,0.13134,-0.05620,0.12889,24.42268,32.13972,-24.96346,20,
759452,27.93910,95190,12.40566,112.98700,523.78058,1.74437,0.43789,9.71247,0.02535,-0.13806,-0.11393,18.94183,33.98129,-26.29348,20,
760801,27.94415,95191,12.39122,112.91100,523.78058,1.52901,0.01436,9.23869,0.26084,0.20495,0.06781,18.60567,34.59515,-26.84887,20,
762149,27.94888,95190,12.39628,112.91100,523.78058,0.90449,0.35892,9.49711,-0.26786,-0.19273,-0.66615,12.94943,33.27974,-29.50891,20,
763506,27.94983,95191,12.38168,112.83500,523.69342,0.45942,0.16510,9.63350,0.16921,0.07575,0.20953,5.15931,34.34668,-29.31891,20,
764854,27.95645,95190,12.38682,113.06300,523.78058,0.40917,0.12921,10.07857,0.04551,-0.06445,0.02657,7.99474,36.08594,-27.62350,20,
766202,27.96529,95191,12.37253,112.75900,523.69342,0.61017,0.17946,9.99243,-0.04062,-0.00214,0.00489,7.95089,35.82286,-28.86583,20,
767550,27.97444,95191,12.38754,112.83500,523.69342,0.54556,0.10768,9.84886,0.00519,-0.07178,0.01649,7.52704,35.93978,-28.07659,20,
768902,27.97949,95192,12.37798,112.75900,523.69342,1.10548,-0.13639,9.81297,-0.03543,-0.06078,-0.08858,12.71558,37.29903,-27.52119,20,
770250,27.98548,95192,12.37821,112.83500,523.69342,0.95474,-0.04307,9.97089,-0.01313,-0.06567,0.04551,12.08711,37.28442,-27.63812,20,
771597,27.99211,95192,12.37848,112.60800,523.60620,0.96909,0.14357,9.86322,0.02260,-0.02505,0.01038,12.17480,36.23210,-27.98889,20,
772945,27.99936,95193,12.38852,112.53300,523.42920,1.21316,0.24407,9.70529,0.01710,-0.10263,-0.02474,12.52558,35.73516,-27.40427,20,
774298,28.00252,95193,12.39353,112.53300,523.51636,0.74656,0.67478,9.89911,0.04673,0.00092,0.06384,6.41625,34.39053,-28.55890,20,
775648,28.00757,95193,12.40350,112.38300,523.60620,0.71067,0.37328,9.87039,0.03085,-0.02657,0.00061,7.29319,35.23823,-28.38351,20,
776996,28.01294,95192,12.39883,112.38300,523.51636,0.58863,0.30150,9.88475,0.02260,-0.04062,-0.00336,7.52704,35.32593,-28.25197,20,
778344,28.02051,95193,12.39425,113.06300,523.60620,0.87577,0.25125,9.99243,0.03482,-0.04215,0.00153,8.76937,35.32593,-28.25197,20,
779696,28.02556,95192,12.37980,113.13900,523.69342,1.01934,0.53121,9.76272,0.05345,0.12431,0.02505,11.04940,33.36744,-28.74890,20,
781042,28.03345,95191,12.36060,114.06000,523.69342,2.18225,1.27059,9.30329,-0.03207,-0.06658,-0.87293,13.08097,37.67904,-25.79655,20,
782391,28.04386,95192,12.33173,113.36800,523.60620,2.83549,0.34457,9.44686,0.03329,-0.13378,-0.04093,17.34873,34.93131,-26.26425,20,
783739,28.04765,95191,12.32213,113.13900,523.78058,2.64168,0.04307,9.76989,-0.14966,0.09621,-0.02841,10.90324,34.15668,-28.20813,20,
785140,28.02051,95191,12.29179,113.13900,523.69342,0.38046,1.33520,10.48774,0.09255,-0.19059,0.39279,3.17159,34.46361,-29.17276,20,
786489,28.03629,95192,12.26803,113.44400,523.60620,-0.03589,0.01436,9.85604,-0.03971,0.00611,0.10171,0.77463,38.11751,-25.78193,20,
787842,28.05396,95192,12.24923,113.59700,523.60620,-0.33021,-0.27996,10.12882,0.02688,0.06170,0.03329,-0.92078,38.23443,-27.19965,20,
789188,28.06437,95193,12.24476,113.44400,523.69342,-0.26560,-0.37328,10.23650,0.19426,-0.06170,-0.25626,0.48232,39.19906,-26.64426,20,
790538,28.07605,95191,12.22084,113.67400,523.60620,0.30150,-0.77527,9.92782,0.05895,-0.04887,-0.23610,-5.64162,36.39287,-28.26659,20,
791885,28.08362,95193,12.20652,113.67400,523.51636,0.50967,-0.53839,10.01396,-0.07941,-0.17654,-0.01436,-7.96551,34.53669,-27.71119,20,
793234,28.09024,95192,12.20678,113.59700,523.60620,0.00718,-1.48594,9.87039,-0.16677,-0.07117,0.10873,-12.37942,34.03975,-26.76118,20,
794586,28.09340,95192,12.21178,113.75100,523.60620,-0.66760,0.91167,10.00678,-0.12553,-0.16493,-0.10537,-17.29027,27.00965,-27.31657,20,
795932,28.09561,95192,12.20699,114.21500,523.60620,-0.63171,0.33021,9.89193,-0.26695,0.09713,-0.23854,-20.69570,17.33411,-26.00117,20,
797279,28.09940,95192,12.20714,113.75100,523.60620,-0.48814,-0.63888,9.28894,-0.18815,-0.09224,-0.17379,-18.03566,2.64543,-25.32885,20,
798627,28.10508,95193,12.20249,113.59700,523.60620,-0.91167,-1.38544,9.94936,0.29932,-0.01252,-0.26542,-15.72640,-1.18386,-26.22040,20,
799982,28.10823,95193,12.21723,113.29100,523.60620,-0.73220,-2.36889,9.53301,-0.06720,-0.31246,-0.05956,-7.10319,0.29231,-30.44431,20,
801330,28.11517,95192,12.20776,113.59700,523.60620,-1.98126,-1.80180,11.11945,0.17013,-0.08796,0.27489,-10.40631,4.58930,-29.87431,20,
802678,28.12086,95191,12.24210,112.38300,523.69342,-1.70130,-1.42134,9.51147,-0.18692,0.44929,-0.01161,-5.52470,1.31540,-30.83894,20,
804026,28.12622,95190,12.28620,112.23200,523.78058,0.50967,-2.47657,9.91346,-0.10263,0.12859,0.17501,-0.01462,1.37387,-31.10202,20,
805432,28.10413,95190,12.32436,111.71000,523.78058,0.01436,-0.61017,10.66720,0.04337,-0.01833,0.07055,-7.01549,-2.07542,-28.23736,20,
806780,28.11044,95190,12.37341,111.48800,523.69342,-0.20100,-0.81835,9.71965,-0.30879,-0.13134,-0.11606,-5.42239,-2.03157,-29.84507,20,
808129,28.12464,95191,12.40815,112.38300,523.69342,-0.60299,-0.91884,9.79143,0.06109,-0.12217,-0.19059,-7.48319,-4.48699,-27.72581,20,
809478,28.13474,95190,12.42809,112.38300,523.78058,0.20100,0.68913,9.75554,0.05223,-0.00550,-0.03085,-2.99620,-8.59398,-26.64426,20,
810829,28.14010,95189,12.45272,112.91100,523.78058,-0.40199,0.44506,9.97807,-0.01741,0.01374,-0.11545,-2.83543,-10.64016,-25.09500,20,
812180,28.14799,95190,12.46281,112.91100,523.69342,-0.56710,0.73938,9.82732,0.06689,-0.01069,0.09652,-3.11312,-11.61941,-24.97808,20,
813528,28.15556,95190,12.46800,112.38300,523.78058,-1.94536,-1.33520,9.76989,-0.25015,-0.51313,-0.59346,-15.69716,-4.19468,-24.26191,20,
814879,28.15872,95187,12.48767,112.83500,524.12939,-2.03151,9.80579,1.83769,-0.41722,0.64263,0.17532,-12.51096,-24.77346,26.00117,20,
816228,28.16314,95185,12.51229,112.15800,524.21924,-4.74497,4.10608,8.80080,0.56505,0.27672,-0.17074,-28.41274,-12.80327,-3.28851,20,
817576,28.16787,95185,12.52225,112.53300,524.21924,-5.17567,1.23470,8.28395,0.33445,0.29749,-0.32590,-28.58813,-6.79626,-9.88015,20,
818925,28.16945,95184,12.53698,112.98700,524.21924,1.94536,-4.12044,9.21715,-0.13073,0.44990,-0.06414,5.17393,13.19790,-33.39667,20,
820277,28.16913,95187,12.50764,114.06000,524.12939,-1.99561,-4.73779,9.42533,-1.07451,-0.53695,-0.33964,-12.17480,13.38790,-29.83046,20,
821625,28.17039,95186,12.45882,115.15400,524.12939,-0.68913,-5.29771,9.40379,0.59956,1.05924,0.04826,-3.68313,14.76177,-33.03128,20,
823009,28.15683,95186,12.37525,115.39100,524.12939,2.69910,-4.62293,8.31984,0.45540,-0.39431,-0.09194,8.43321,13.78252,-33.01666,20,
824358,28.15777,95186,12.30208,116.18800,524.12939,-0.48096,-4.37887,9.20997,-1.06932,0.54459,0.19426,-3.65390,10.97632,-33.16282,20,
825710,28.16251,95186,12.22911,115.94800,524.12939,-0.33021,-8.73620,4.06301,0.19884,-0.01710,-0.39706,-2.51388,45.71763,-21.06109,20,
827059,28.16787,95189,12.16596,115.07500,523.78058,0.05743,-8.32702,6.25962,-1.28526,-0.31032,0.23366,-2.95235,31.21894,-30.69278,20,
828404,28.16913,95189,12.10755,114.76100,523.95502,-0.29432,-8.47059,5.31207,0.35155,0.58979,-0.16096,-4.42853,42.89681,-22.37650,20,
829753,28.16692,95189,12.05878,114.13700,523.86780,-1.42134,-10.02832,2.75653,0.00336,-0.12462,-0.09865,-1.60772,46.72610,-19.19029,20,
831105,28.16282,95190,12.00995,113.44400,523.78058,-0.35174,-10.74617,0.06461,0.21228,0.04398,0.14478,0.73078,54.16545,-10.17246,20,
832453,28.16219,95189,11.96614,111.78500,523.86780,0.15075,-9.85604,-0.34457,0.12920,0.16188,-0.10843,3.31774,53.30313,-11.25402,20,
833802,28.16377,95189,11.92730,110.75400,523.86780,-0.04307,-9.59761,0.04307,-0.25626,0.03879,0.14142,2.33850,53.30313,-11.53172,20,
835150,28.16408,95190,11.88843,109.52700,523.78058,0.38046,-10.14318,1.25623,-0.13836,0.02230,-0.11881,4.57469,49.34230,-16.20871,20,
836506,28.15809,95190,11.86390,109.24300,523.86780,0.02871,-9.80579,0.99063,-0.06811,0.20953,0.19151,1.82695,49.69307,-16.07717,20,
837855,28.15872,95190,11.82506,110.10100,523.86780,0.53839,-8.26960,5.05364,-0.24099,-0.18418,0.02077,4.53084,36.21748,-27.22888,20,
839239,28.13979,95189,11.80006,110.39000,523.86780,0.18664,-5.76431,7.21436,-0.42089,-0.22205,-0.20159,-0.58462,16.66179,-33.27974,20,
840586,28.14168,95189,11.78556,111.04600,523.86780,-0.07896,-3.26620,8.77209,-0.45021,-0.93035,0.18357,2.96697,2.11926,-31.29202,20,
841935,28.14641,95189,11.77118,111.63600,523.78058,-0.13639,-1.24187,9.96371,-0.08919,-0.22694,-0.01344,-1.85618,-5.53932,-28.93891,20,
843284,28.15336,95189,11.77630,112.68400,523.86780,0.63888,-1.25623,9.88475,0.05406,-0.12798,0.02169,1.19848,-4.31160,-28.99737,20,
844631,28.16030,95189,11.77656,113.06300,523.86780,0.23689,-0.92602,9.48993,-0.00031,0.03390,0.13256,3.04005,-1.94388,-31.32125,20,
845980,28.16566,95188,11.78162,113.59700,523.95502,-0.34457,-2.32582,9.25305,0.15027,-0.04551,-0.25717,-0.76001,0.89155,-31.65741,20,
847331,28.16945,95188,11.78176,114.21500,523.95502,0.12921,-2.94317,9.36072,0.39218,-0.42089,0.13867,2.63081,1.71003,-31.78895,20,
848679,28.17103,95188,11.78668,114.52600,523.86780,1.08395,-2.64168,9.81297,0.10415,0.37751,0.00061,3.77083,0.14616,-31.55510,20,
850027,28.17355,95189,11.78192,114.83900,523.86780,0.53839,-4.15633,8.65005,-0.26634,-0.44838,0.27336,4.63315,8.30167,-32.49050,20,
851379,28.17481,95189,11.78197,115.15400,523.95502,0.50249,-0.08614,7.21436,-0.68570,-0.87873,-0.80420,3.61006,-6.31394,-28.17889,20,
852727,28.17734,95188,11.78692,114.99600,523.95502,0.06461,-3.51745,9.49711,-0.32987,0.00367,0.15699,-0.24847,4.63315,-32.68050,20,
854076,28.18176,95188,11.77737,115.39100,523.86780,0.09332,-0.78963,9.89911,-0.19059,0.08888,0.10354,0.23385,-1.18386,-30.94124,20,
855425,28.18649,95188,11.77755,116.26900,523.86780,-0.92602,-7.09950,7.32922,0.23457,-0.08858,-0.10171,-2.38234,25.40193,-32.09588,20,
856812,28.17229,95189,11.76245,115.15400,523.95502,-0.34457,-6.57548,7.61635,-0.02779,0.13439,-0.15424,-1.95849,23.76498,-33.48436,20,
858161,28.17324,95189,11.76249,115.86800,523.95502,-1.01216,-5.48435,9.28894,-0.23152,-0.25656,-0.02077,-2.14849,15.06869,-34.68284,20,
859511,28.18144,95188,11.76765,115.31200,523.95502,0.15793,-3.00060,9.26740,-0.16554,-0.12706,0.08002,0.11692,6.41625,-32.57819,20,
860857,28.18933,95186,11.76795,115.54900,524.04218,-0.02154,-3.03649,9.59043,0.11118,-0.03665,-0.04001,-1.11079,3.87314,-33.35282,20,
862206,28.19406,95188,11.76813,115.70800,523.95502,-0.14357,-2.96471,9.55454,0.06842,-0.01527,0.03176,-0.87694,4.22391,-32.27127,20,
863555,28.19879,95189,11.77802,115.54900,523.86780,-0.41635,-3.00778,9.67657,-0.02718,-0.03482,0.06506,-1.60772,3.78544,-32.56358,20,
864902,28.20668,95189,11.78803,115.31200,523.95502,0.46660,-5.57049,7.88196,0.02382,-0.08552,0.00214,-2.00234,17.91874,-33.48436,20,
866250,28.20889,95188,11.80754,115.47000,524.04218,0.12203,-5.82174,8.09013,-0.00122,-0.02596,0.04062,-1.79772,18.19643,-32.97282,20,
867602,28.20984,95187,11.82215,115.31200,523.95502,0.09332,-5.48435,8.11167,-0.04643,-0.04581,0.00122,-1.88541,17.71412,-34.60976,20,
868951,28.21268,95189,11.84169,115.70800,523.86780,-1.80897,-5.54178,8.49931,0.01680,-0.04887,-0.00702,-1.25694,15.18562,-33.80590,20,
870299,28.21710,95189,11.86130,115.54900,523.95502,0.32303,-6.53958,8.20499,0.30696,0.08522,-0.03787,-0.59924,16.12102,-33.79129,20,
871652,28.21836,95189,11.87106,115.31200,523.86780,0.05025,-5.69252,8.64288,0.04093,-0.08980,-0.02963,-1.28617,17.37796,-33.30898,20,
873038,28.20510,95188,11.88514,115.78800,523.95502,0.11486,-6.37448,8.06142,-0.30635,-0.04246,0.10385,-2.38234,20.71032,-33.26513,20,
874385,28.21047,95187,11.89020,115.47000,523.95502,-0.32303,-5.91506,7.91785,-0.11973,-0.00061,-0.02291,-2.13388,19.42414,-33.93745,20,
875732,28.22152,95188,11.89063,115.94800,523.95502,0.05743,-5.69970,8.24088,-0.08491,0.02016,0.03329,-1.84157,18.95645,-33.80590,20,
877085,28.22625,95188,11.87623,116.75300,523.95502,0.03589,-5.95813,8.11167,0.01069,-0.03115,-0.01619,-1.19848,18.89798,-33.61590,20,
878431,28.23287,95187,11.88134,117.65200,523.95502,0.46660,-5.61356,8.26960,0.01985,-0.02810,-0.00428,-0.81847,17.65565,-34.78515,20,
879779,28.23477,95188,11.85711,116.51000,523.95502,0.25842,-5.58485,8.01835,0.00305,-0.03787,0.03512,0.01462,16.74949,-33.76206,20,
881128,28.23824,95187,11.83781,117.16000,524.04218,0.02871,-5.49871,8.49931,-0.01894,0.00153,0.04459,-0.81847,15.72640,-33.80590,20,
882481,28.23950,95187,11.80385,116.18800,524.04218,0.10050,-5.16850,8.33420,0.00947,0.03390,0.04246,0.71616,14.83484,-34.08360,20,
883832,28.24013,95187,11.78930,114.76100,523.95502,-0.11486,-5.01775,8.87976,0.02291,-0.04093,-0.01955,1.53464,14.80561,-34.47822,20,
885181,28.24613,95188,11.74583,115.62900,523.95502,-0.22971,-5.13260,8.72902,-0.01252,-0.02932,0.02505,-0.38001,13.87021,-33.61590,20,
886529,28.25117,95187,11.71690,116.18800,523.95502,-0.42353,-4.92443,8.64288,0.04612,-0.02627,0.01985,0.16077,13.49021,-34.71207,20,
887880,28.25622,95188,11.68797,116.43000,523.95502,0.27996,-4.70907,8.65723,0.01100,-0.02688,0.03940,-0.67232,13.02251,-33.39667,20,
889265,28.24581,95188,11.65362,116.99700,523.86780,-0.01436,-4.69472,8.98026,0.01924,-0.04734,-0.02169,-0.17539,12.23327,-33.06051,20,
890612,28.25086,95188,11.62471,117.65200,523.86780,0.01436,-4.70190,8.76491,0.00061,-0.03574,-0.00305,-0.26308,12.18942,-34.40514,20,
891961,28.25907,95188,11.58138,118.14800,523.95502,-0.05743,-4.60858,9.01616,0.01313,-0.02505,0.01924,0.19000,12.10172,-34.12745,20,
893314,28.26285,95188,11.56213,118.14800,523.95502,-0.26560,-5.24028,8.69312,-0.03238,-0.03238,0.00397,0.39462,13.19790,-34.15668,20,
894662,28.26758,95187,11.53323,117.98200,524.04218,0.49531,-4.02712,8.90130,-0.04337,-0.48991,0.22297,2.54312,9.66092,-33.60129,20,
896014,28.27043,95187,11.50427,118.14800,523.86780,0.18664,-3.53898,9.99243,-0.23427,-0.09041,0.05376,2.01695,7.95089,-33.68898,20,
897362,28.27516,95188,11.47054,118.90000,523.95502,0.05025,-4.89572,8.82234,0.06200,-0.08186,0.02382,1.82695,11.32710,-33.29436,20,
898714,28.27642,95187,11.45122,118.56400,524.12939,0.07896,-4.50090,8.71466,0.02443,-0.14752,0.02474,1.35925,11.21017,-34.91669,20,
900062,28.28273,95186,11.44177,118.90000,524.21924,0.60299,-4.28555,8.89412,-0.00031,-0.10873,0.00244,1.30079,11.31248,-33.63052,20,
901410,28.28683,95186,11.42740,118.90000,524.12939,0.18664,-4.86700,8.86541,0.04979,0.00305,0.01100,0.83309,12.20403,-34.50745,20,
902759,28.29094,95186,11.41787,118.23100,524.04218,0.18664,-4.68036,8.81516,0.00611,-0.02505,0.06353,1.76849,12.39404,-34.33207,20,
904111,28.29409,95187,11.40831,118.73200,524.12939,0.42353,-4.63011,8.63570,0.01833,-0.05498,-0.01772,1.31540,12.32096,-34.65361,20,
905459,28.29977,95187,11.39400,118.14800,524.12939,0.20100,-4.14915,9.15255,0.00947,-0.02810,0.01619,2.42619,10.58170,-33.20667,20,
906842,28.28873,95186,11.38875,117.32300,524.04218,0.50967,-6.46780,7.45125,0.10476,0.00458,0.03421,1.47618,21.83572,-33.01666,20,
908193,28.29314,95187,11.38407,117.16000,524.12939,0.25842,-4.74497,8.82234,-0.06170,-0.08980,0.05040,2.48465,13.15405,-33.32359,20,
909545,28.30261,95187,11.38442,116.02800,524.12939,0.22971,-4.60858,9.05923,0.00886,-0.04184,-0.04001,1.27156,11.16633,-34.11283,20,
910894,28.31302,95186,11.37996,113.82800,524.12939,1.79462,-2.90010,9.76989,-0.17654,0.04612,0.09652,1.35925,7.70243,-33.44051,20,
912241,28.32123,95186,11.38027,113.29100,524.12939,15.95773,-1.57208,25.11028,-3.01523,0.32834,1.40896,23.91114,-25.67963,24.77346,20,
913594,28.32028,95173,11.37539,113.98300,526.31982,13.22274,-12.06700,-2.06740,0.46914,-0.54978,0.46151,34.24437,36.37825,-12.46711,20,
914941,28.30703,95130,11.37007,115.78800,530.70068,13.36631,1.19880,-7.06361,10.00689,0.69303,0.19426,44.47530,9.25168,-10.93248,20,
916290,28.28525,95065,11.34508,118.64800,536.83606,10.12882,1.85922,-0.94756,0.68417,-0.09255,0.32437,42.88220,28.90967,25.59193,20,
917638,28.26821,94985,11.30093,120.77900,544.38239,9.13101,-3.29492,1.30648,-0.09560,-0.18723,0.32315,43.67144,13.12482,31.59895,20,
918993,28.25559,94893,11.26180,121.30200,552.54437,9.15255,-2.63450,-0.35892,-5.54635,0.05131,0.42822,39.09676,11.28325,39.38907,20,
920338,28.25591,94800,11.21350,122.80800,560.80414,8.85105,2.55553,0.40199,-2.32984,-0.36194,-0.18204,36.20287,15.39024,-22.44958,20,
921686,28.24865,94701,11.16011,123.07800,569.42059,9.89193,1.76590,-0.54556,-0.35980,-0.22755,-0.01985,37.91289,-17.86028,9.19322,20,
923069,28.21836,94604,11.12523,123.43900,578.22198,11.52144,0.94038,-0.00718,2.35458,0.13714,0.04337,44.65068,25.94271,-4.18006,20,
924421,28.19974,94501,11.08596,123.34900,587.46997,9.91346,1.16291,-1.31366,0.13408,-0.06170,0.06078,47.85151,21.87957,2.66004,20,
925769,28.17513,94392,11.05132,124.53700,597.16711,8.52802,0.79681,-0.91884,-0.08674,-0.17715,-0.00275,47.28150,17.62642,-0.76001,20,
927118,28.15178,94283,11.02155,124.26000,606.61060,9.01616,-0.17228,-0.50249,-5.87775,0.07361,0.14997,44.70915,5.91932,26.38117,20,
928466,28.14831,94176,11.01661,123.80300,615.97217,9.48993,0.00718,-0.98345,2.60992,-0.17623,-0.08735,42.16603,34.68284,2.20696,20,
929818,28.14484,94072,10.99721,123.89400,625.16467,9.13819,-0.19382,0.55274,-1.36009,0.09194,-0.03574,37.91289,6.47471,38.96522,20,
931171,28.11991,93969,10.99632,123.98500,634.36768,9.70529,-2.28993,-1.01216,1.93186,0.01100,0.16188,34.90208,24.07191,40.61678,20,
932519,28.10350,93867,11.00056,124.16900,643.40161,10.68874,-0.47378,-1.21316,-0.32926,-0.25045,-0.16890,40.74832,-11.95557,-3.61006,20,
933867,28.09119,93762,11.00976,124.07700,652.79755,9.27458,-0.58146,0.91884,3.38755,0.24465,-0.22388,41.09909,31.48202,-6.43087,20,
935219,28.07384,93655,11.01877,124.16900,662.20142,8.97309,1.22752,0.19382,0.63469,-0.02138,0.10476,38.68752,-10.37708,28.10582,20,
936565,28.04922,93551,11.01790,124.53700,671.43616,9.63350,-0.07178,-0.26560,-1.99478,-0.14539,0.00000,40.36831,24.87577,32.70973,20,
937914,28.03786,93448,11.02231,124.72100,680.59161,10.10010,0.05743,-1.54337,0.72021,-0.18845,0.13653,45.16224,29.17276,-0.81847,20,
939259,28.03944,93346,11.00791,124.35200,689.57800,10.17907,0.78245,0.94038,1.59619,0.13408,-0.12034,43.52528,2.68927,31.40895,20,
940647,28.00379,93241,10.98737,125.09300,698.92639,9.03051,0.28714,-0.73220,1.81060,-0.03054,0.13500,42.09296,-11.38556,1.30079,20,
941993,27.99116,93138,10.95321,125.74700,708.10565,9.69811,-0.33739,-1.81615,-1.06321,-0.36988,0.08247,40.67524,-14.93715,4.26776,20,
943346,27.97602,93038,10.91897,125.93600,717.11578,10.88974,0.03589,-0.85424,0.43097,-0.01619,0.22755,36.30518,-7.61473,35.69132,20,
944693,27.97128,92935,10.88512,125.84200,726.04138,9.24587,0.27278,0.00718,-1.18325,-0.13073,-0.08644,36.61210,-19.42414,4.76469,20,
946043,27.96529,92836,10.84161,126.40900,734.97754,9.50429,1.55055,-0.81835,-0.78741,-0.26634,0.02902,39.78369,3.81467,35.98363,20,
947392,27.95551,92737,10.80280,126.88600,743.92163,10.00678,0.47378,-1.17009,-1.43462,-0.16463,0.06811,44.79684,26.83426,22.84420,20,
948741,27.93815,92635,10.75412,127.65700,753.05072,8.47777,0.15075,-0.40199,-1.82252,-0.05589,0.13195,47.58842,5.64162,-2.93774,20,
950092,27.93058,92535,10.70101,127.94900,761.83099,10.57388,-0.69631,0.70349,0.02688,-0.03238,0.03390,46.81380,-5.68547,8.94475,20,
951441,27.90533,92442,10.63772,129.12801,770.08014,10.17907,-0.10768,-1.90229,2.62489,-0.09957,0.09377,45.04531,3.84391,-9.98246,20,
952790,27.87946,92350,10.56966,129.92599,778.42712,9.42533,0.29432,0.02871,-5.46113,-0.25962,0.10415,37.89827,-14.08945,-5.13008,20,
954138,27.86084,92250,10.47314,130.42999,787.49805,9.81297,0.51685,-0.47378,-2.58243,-0.22816,0.07300,36.50979,-15.18562,-7.77550,20,
955494,27.85642,92149,10.39636,130.32899,796.66675,9.76989,0.30867,-1.65105,2.28800,0.02016,-0.33109,38.65829,-18.25490,6.75241,20,
956875,27.83749,92048,10.32392,129.92599,805.57385,10.71027,0.48096,0.04307,-2.12337,0.01008,-0.13806,44.15376,2.14849,-8.94475,20,
958223,27.82739,91949,10.26141,130.63300,814.67120,9.43969,0.83988,-0.05025,-2.34664,-0.11484,0.09835,45.32301,26.35194,22.40573,20,
959571,27.82582,91847,10.21833,130.22800,823.68396,9.32483,0.28714,-1.25623,3.57173,0.14997,-0.14569,46.00994,21.23648,23.77960,20,
960921,27.82045,91749,10.16559,130.73399,832.52502,10.22214,-0.83270,-1.64387,4.68137,-0.00336,-0.21228,44.00760,31.86203,7.10319,20,
962270,27.79868,91652,10.13622,131.45000,841.46381,9.15972,-0.24407,-0.58146,-2.40620,-0.02596,-0.05376,39.97369,31.94972,27.49196,20,
963618,27.78448,91551,10.10710,131.24500,850.50043,9.14537,-0.05025,-0.07896,-0.82284,-0.08094,-0.00092,39.41830,-8.43321,-10.93248,20,
964967,27.78890,91451,10.09770,130.73399,859.63739,10.25803,0.23689,1.35673,1.58122,0.07117,-0.00214,38.76060,39.95908,4.15083,20,
966319,27.77848,91351,10.07349,130.93800,868.50751,9.22433,-0.29432,-0.48096,1.58428,-0.10812,0.17593,39.41830,14.80561,37.51827,20,
967671,27.75608,91253,10.06322,131.45000,877.47803,9.74836,-0.12921,-0.60299,-2.59740,-0.17959,0.12614,42.34142,10.02631,34.62438,20,
969018,27.74377,91151,10.04850,131.24500,886.72864,9.14537,-0.61017,-0.02154,-1.23273,0.03482,0.02535,45.41070,2.30927,-7.45396,20,
970365,27.74567,91050,10.03902,130.83600,895.80481,8.65005,-0.22253,-0.30150,2.70216,0.11240,0.22724,45.71763,8.21397,-7.13242,20,
971717,27.73525,90952,10.03868,131.14200,904.70929,9.89911,1.45723,-2.34018,-4.26567,-0.19273,0.00641,43.30605,7.79012,-12.23327,20,
973101,27.71001,90851,10.02355,130.73399,914.07617,10.13600,-1.45723,0.48814,-0.99846,-0.01863,-0.12370,38.49752,36.42210,-6.31394,20,
974447,27.70969,90747,10.02831,130.93800,923.45093,8.57827,-0.79681,-1.06959,2.11115,0.03146,0.13836,38.55598,35.44285,27.15580,20,
975796,27.71885,90646,10.00953,130.93800,932.74121,10.17907,-2.04586,-0.26560,0.70036,0.05956,-0.03635,44.22683,-10.39170,9.03245,20,
977148,27.71695,90544,9.99994,130.93800,942.13446,10.04986,-0.22253,-1.21316,3.12885,0.13225,0.10171,47.17919,23.00497,0.83309,20,
978495,27.71663,90441,9.98086,129.92599,951.44318,8.72184,-0.42353,-0.22971,1.43676,0.04062,0.10690,47.20842,-2.61619,5.59778,20,
979847,27.70812,90340,9.98058,130.12700,960.39520,10.10010,0.22971,1.06959,-0.32712,-0.18295,-0.16768,43.45221,23.60421,-10.24554,20,
981195,27.69581,90243,9.95635,130.73399,969.44763,9.71247,0.76092,-0.11486,-2.73026,-0.07575,0.16066,36.04210,-19.36568,17.62642,20,
982547,27.69486,90143,9.94679,131.03999,977.04156,8.54955,0.96191,-3.37388,4.02316,-0.03176,-0.05009,32.68050,-21.52879,21.28033,20,
983895,27.73809,90051,9.92436,131.65601,987.20905,11.29891,-0.43071,2.07458,-4.14411,0.16768,-0.00336,40.42678,9.85092,-15.88717,20,
985243,27.70244,89949,9.91368,131.55299,996.37506,9.05923,-1.42134,-2.65603,-0.23213,0.03971,0.14783,46.37533,28.61736,7.32242,20,
986594,27.68161,89848,9.89872,131.96600,1005.64150,8.74337,0.63888,-0.07178,-1.48196,-0.14997,-0.02596,46.68225,19.81877,21.74803,20,
987942,27.65447,89747,9.88356,132.17300,1015.00840,10.32264,1.05523,0.65324,-1.44592,-0.06597,0.26145,45.30839,-8.30167,7.49781,20,
989291,27.64722,89647,9.88333,132.17300,1024.10840,9.15255,1.53619,-0.83988,1.83748,-0.02199,0.01374,40.76294,-10.43554,-6.06548,20,
990675,27.62607,89548,9.84932,132.06900,1033.12650,10.01396,0.58863,-2.03868,-4.96756,-0.16982,0.08186,40.30985,38.77521,8.17013,20,
992028,27.62103,89455,9.83964,132.38100,1041.59750,9.95653,2.35454,-1.32084,-3.07387,-0.22755,0.23457,44.65068,30.38585,1.59310,20,
993377,27.63396,89363,9.80674,132.17300,1050.07670,9.15255,0.27278,1.17009,1.04244,-0.04184,-0.04062,43.26220,30.31277,-1.94388,20,
994724,27.64090,89267,9.76891,132.59000,1058.93090,9.56172,-0.15793,0.94038,-1.61116,-0.01161,-0.12217,41.40602,30.61970,-7.04472,20,
996073,27.64627,89172,9.74054,132.59000,1067.70060,9.42533,-0.38764,-0.58146,1.68232,0.09377,0.04612,38.23443,38.77521,-1.79772,20,
997435,27.64437,89076,9.70720,132.38100,1076.47830,9.61197,-1.83769,-0.85424,0.00000,-0.07941,0.03940,36.72903,35.54516,29.49430,20,
998784,27.63239,88986,9.66880,133.32600,1084.80140,10.12882,0.22971,-0.68195,0.03604,-0.21900,-0.08033,42.73604,11.50249,34.55130,20,
1000132,27.62039,88895,9.64467,133.11501,1093.40730,9.79143,0.19382,-1.27777,-3.12916,-0.01894,0.09896,47.42765,2.48465,-0.01462,20,
1001481,27.62039,88797,9.62567,133.32600,1102.57860,9.46122,-0.41635,-1.32802,4.07355,-0.03482,-0.05253,47.45689,18.59105,-1.69541,20,
1002836,27.59768,88697,9.60122,133.75101,1111.66540,9.87757,-0.89731,0.48096,-1.76357,0.11820,-0.02779,43.46682,20.57878,29.55276,20,
1004184,27.57906,88601,9.60064,133.43201,1120.76010,9.68375,-0.35892,-1.59362,-2.12428,-0.17685,0.27733,39.30138,-17.14411,13.53405,20,
1005566,27.57212,88504,9.58618,132.90500,1129.76760,9.71965,0.69631,-0.01436,0.15027,-0.16066,0.10079,35.32593,-20.87109,5.48085,20,
1006914,27.57843,88406,9.58163,133.11501,1138.78560,9.48993,0.52403,-1.16291,-0.29047,-0.17501,-0.07025,35.57439,-8.50628,37.00673,20,
1008267,27.58064,88310,9.57695,133.43201,1147.71920,10.00678,0.61017,-0.32303,0.94226,-0.00641,-0.15394,42.92604,-11.89711,17.61181,20,
1009614,27.57559,88214,9.56255,133.22099,1156.66060,10.04986,0.30867,-0.37328,-2.32220,-0.26328,0.02077,47.19381,15.03946,26.00117,20,
1010962,27.57369,88117,9.55300,133.22099,1165.79500,9.24587,0.14357,-0.98345,0.06078,-0.04062,0.06597,48.37767,9.50015,-0.36539,20,
1012311,27.56391,88018,9.53846,133.75101,1174.84480,9.69093,-0.61735,-1.06241,0.77885,0.13592,-0.23243,46.00994,30.31277,8.21397,20,
1013664,27.54498,87922,9.52364,134.28500,1183.89990,10.30828,1.42852,-0.96191,-2.67223,-0.19761,-0.05681,42.20988,23.83806,-11.44402,20,
1015013,27.53520,87825,9.51385,134.07001,1192.87300,9.67657,-0.27996,0.58863,-0.62675,-0.16646,0.10996,37.81058,-13.43175,27.82812,20,
1016360,27.53015,87728,9.49947,133.96400,1201.94920,9.63350,0.43789,0.09332,0.44166,-0.14691,-0.01833,38.00058,-18.25490,2.17773,20,
1017712,27.52195,87632,9.49922,134.28500,1211.03080,9.28176,1.29212,-0.05025,-0.86590,-0.10629,-0.07514,40.58755,-16.51564,16.41333,20,
1019061,27.51090,87536,9.47517,134.82300,1219.83740,10.14318,1.04806,-0.89731,0.04917,-0.15791,-0.08063,43.89067,-8.50628,22.23034,20,
1020409,27.50490,87442,9.45128,135.58400,1228.84230,9.98525,1.56491,-0.50249,-1.91995,-0.23182,-0.05040,47.04765,11.53172,25.86963,20,
1021758,27.50238,87347,9.39908,135.58400,1237.66750,9.70529,0.86859,-0.65324,-0.75442,-0.16616,0.07086,48.14382,20.25723,2.93774,20,
1023145,27.47840,87252,9.33678,136.35400,1246.59310,9.74836,0.47378,-0.89013,-0.27703,-0.12614,0.00977,44.37299,0.58462,-6.59164,20,
1024493,27.46893,87158,9.28443,137.69400,1255.52660,9.46840,-0.12203,0.10050,0.30085,-0.13042,-0.01955,40.66063,-5.48085,-10.21631,20,
1025846,27.46168,87060,9.18017,139.63800,1264.84590,9.63350,0.22971,-0.22253,1.28129,-0.03176,-0.04246,38.67290,16.38410,-18.69337,20,
1027193,27.44779,86960,9.07582,141.16200,1274.17320,10.03550,0.97627,0.12203,-0.34239,0.03451,-0.04643,39.53522,21.06109,-16.53025,20,
1028545,27.42981,86865,8.93375,142.72000,1283.13050,9.62633,0.24407,-0.50967,2.42178,0.12828,0.13256,41.01140,35.69132,20.87109,20,
1029894,27.40866,86770,8.77296,145.31100,1292.09840,9.66940,-0.07896,-0.61735,-4.83011,-0.02474,0.15638,45.65916,29.88892,5.70009,20,
1031242,27.38279,86673,8.61232,146.70500,1301.35420,9.41097,-0.05743,-0.80399,-5.30872,-0.22541,0.08033,47.60304,-3.96083,6.29933,20,
1032590,27.38184,86575,8.43858,147.47800,1310.52560,9.24587,0.05743,0.10050,-0.12095,-0.01619,0.12645,47.73458,2.44081,-2.76235,20,
1033943,27.38405,86480,8.26522,148.78300,1319.42210,10.45903,0.60299,-0.18664,2.11726,-0.06353,-0.15852,43.53990,33.87898,15.40485,20,
1035291,27.36732,86384,8.09166,152.14900,1328.79960,9.31765,0.05743,0.38046,0.82558,0.03054,-0.02046,38.77521,-8.63783,30.88278,20,
1036640,27.33924,86284,7.88547,154.81100,1338.09240,9.47558,0.23689,-0.91884,0.56047,-0.07239,0.06506,39.08214,-17.69950,7.07396,20,
1037992,27.31431,86187,7.68913,156.68600,1347.29810,9.89193,0.43071,0.13639,-0.23579,0.12584,-0.06048,40.04677,9.66092,-18.63490,20,
1039379,27.28528,86091,7.47452,157.42000,1356.41390,9.66940,0.03589,-0.36610,-3.12549,-0.16035,0.17135,40.17831,3.82929,36.05671,20,
1040728,27.28371,85995,7.27035,157.71500,1365.63820,9.26022,-0.15793,-0.89731,-0.02169,-0.04154,0.15119,43.07220,31.92049,20.31570,20,
1042075,27.27992,85898,7.09894,159.66200,1374.67740,9.36790,0.36610,-2.08176,-0.98319,-0.23427,0.05803,45.17685,28.51505,16.89565,20,
1043427,27.26414,85805,6.93679,161.65800,1383.53430,9.89911,0.20818,-0.89731,-0.46487,-0.07147,0.20922,47.04765,6.13856,-5.18854,20,
1044773,27.26162,85710,6.76600,162.28200,1392.77950,10.43031,-0.91884,-0.23689,-0.63927,-0.08186,0.14050,42.66296,-12.18942,10.47939,20,
1046122,27.24679,85612,6.60906,164.02400,1402.13060,9.57608,1.09113,-0.40917,1.68354,-0.20159,0.00397,39.52061,-14.27945,-0.21923,20,
1047471,27.22186,85512,6.44757,166.46001,1411.48950,9.51865,1.13420,0.16510,-1.90651,0.00153,-0.13347,38.96522,17.29027,-17.99182,20,
1048823,27.20072,85416,6.31398,166.46001,1420.66880,9.68375,0.61017,-1.24187,-0.38790,0.06414,0.16249,39.35984,36.56825,23.35574,20,
1050176,27.19693,85321,6.17637,167.62199,1429.85330,8.75055,0.55992,0.33739,1.58275,-0.03818,-0.07483,41.94680,-13.60713,14.67407,20,
1051524,27.17989,85223,6.04784,169.82300,1439.33370,9.13101,-0.29432,-1.19163,-3.13771,-0.22388,0.04398,42.23911,29.21660,22.71266,20,
1052872,27.17484,85127,5.91517,172.08200,1448.43910,10.04268,-0.22971,0.04307,1.65942,-0.01863,0.23335,45.58609,23.00497,-4.77930,20,
1054224,27.16759,85034,5.75072,175.49500,1457.16920,9.97807,-0.40199,0.53121,1.10170,-0.00122,-0.17104,44.56299,5.55393,28.55890,20,
1055607,27.13224,84942,5.57238,178.09801,1466.19520,9.79143,-0.35174,-0.73938,-0.34422,-0.02535,0.03024,42.48758,11.97018,33.68898,20,
1056956,27.11710,84845,5.42659,180.00500,1475.51710,9.63350,-0.80399,0.06461,0.64904,-0.10690,0.11332,40.54370,-9.04706,28.36890,20,
1058305,27.11489,84750,5.26765,181.56000,1484.65670,9.86322,0.21535,-1.39980,-0.43219,-0.16554,0.13164,37.41596,-7.77550,33.82052,20,
1059655,27.11110,84655,5.11801,181.56000,1493.80430,9.46840,-0.16510,-0.63888,-0.47342,-0.08522,0.08766,37.54750,4.89623,39.14060,20,
1061004,27.10669,84558,4.96861,183.34200,1503.15260,9.50429,0.60299,-0.57428,-0.16127,-0.09346,-0.05498,39.71061,6.66472,36.43671,20,
1062355,27.09785,84462,4.85550,183.34200,1512.22090,9.64786,-0.39482,-0.26560,-0.39095,-0.07758,0.02321,44.32914,17.52412,31.14586,20,
1063704,27.08586,84368,4.71994,185.15900,1521.19930,9.79861,-0.06461,-1.90947,-1.36406,-0.16310,0.09102,47.38380,24.65653,6.97165,20,
1065056,27.08113,84279,4.61621,185.77299,1529.89510,10.21496,-0.62453,-1.44287,-0.28986,-0.14539,0.07178,46.59456,-0.90617,-1.88541,20,
1066403,27.07418,84189,4.49458,185.65800,1538.69910,9.63350,0.36610,0.27278,-2.85977,-0.15516,0.21502,40.93832,-7.19088,28.71967,20,
1067752,27.05967,84096,4.39098,186.28500,1547.79650,9.58325,-0.61735,-0.70349,-2.26998,-0.09499,-0.07025,40.04677,12.73020,-17.15873,20,
1069102,27.05241,84000,4.29658,186.70599,1556.90440,9.48993,0.73938,-0.16510,1.81946,-0.01955,-0.06872,39.33060,2.83543,-17.71412,20,
1070453,27.05052,83908,4.21132,187.55400,1565.72960,9.36072,-0.63888,0.19382,1.32436,0.10873,0.13317,37.45980,33.92283,30.63432,20,
1071802,27.02149,83818,4.12129,190.25200,1574.66050,10.18625,1.01216,-0.80399,-2.27211,-0.21991,-0.10385,42.38527,-5.55393,29.08506,20,
1073187,26.97479,83723,4.03113,190.69099,1583.88990,9.90629,1.81615,0.02154,-3.53050,-0.05773,-0.11881,47.89535,-2.28004,18.92721,20,
1074543,26.96784,83627,3.94607,191.02200,1593.32290,9.51865,-0.02871,-0.45942,0.57879,-0.01191,-0.00214,46.76995,24.51038,1.78310,20,
1075892,26.97510,83532,3.86576,192.35600,1602.47050,9.50429,-0.93320,-0.52403,0.56352,0.16218,0.06261,42.63373,20.33031,33.03128,20,
1077239,26.96658,83438,3.78976,193.59500,1611.62850,9.17408,0.50249,0.50249,-0.62461,0.10751,0.02474,39.19906,29.15814,31.77434,20,
1078586,26.95301,83345,3.70932,195.08000,1620.69680,9.42533,-0.19382,-0.92602,1.28709,0.10934,0.00825,35.64747,26.90734,38.71675,20,
1079939,26.94797,83254,3.62460,196.12199,1629.38460,9.47558,-0.63171,-1.45723,0.18540,-0.06750,0.07147,35.70593,5.70009,41.85910,20,
1081287,26.92462,83169,3.54865,197.64600,1637.58890,10.27239,0.27996,-1.24187,-0.46304,-0.17715,0.02535,39.78369,3.68313,37.26980,20,
1082636,26.92083,83085,3.48189,195.77299,1645.80100,9.61197,-0.63171,-0.60299,-2.94132,0.01100,0.11057,45.73224,26.80503,0.01462,20,
1083984,26.92398,82996,3.41083,195.77299,1654.80070,9.28176,-0.16510,1.17009,-1.53999,-0.03451,-0.03054,47.07688,1.03771,22.88804,20,
1085341,26.91925,82904,3.35304,195.77299,1663.81080,9.54736,0.10050,0.00718,0.30513,0.01924,0.01405,45.32301,19.32183,27.69658,20,
1086689,26.91704,82812,3.30420,197.17400,1672.73110,8.72184,0.25125,-1.19880,-0.53298,0.08125,-0.12981,42.88220,28.41274,25.95732,20,
1088037,26.90663,82720,3.23312,197.76401,1681.85490,9.61197,0.52403,1.41416,0.15547,0.08735,-0.06506,38.71675,38.64367,-0.16077,20,
1089422,26.88012,82627,3.18851,198.95399,1690.98660,9.48993,-0.30150,-1.22752,1.72447,-0.06170,0.08277,35.10669,-5.99240,37.53288,20,
1090774,26.87413,82535,3.13087,199.55499,1699.83290,9.77707,-0.43071,-0.45942,-3.79714,-0.00825,0.28863,37.19672,37.69366,27.74043,20,
1092122,26.87129,82447,3.08657,200.64500,1708.58680,10.20060,0.91167,0.06461,-0.90164,-0.19517,-0.03115,41.43525,-13.62175,17.78720,20,
1093471,26.87223,82357,3.03791,199.31400,1717.44900,9.31047,-0.82552,0.96191,0.93126,0.15730,-0.07483,46.25840,1.14002,-4.63315,20,
1094819,26.87318,82266,2.98486,200.76700,1726.51460,9.99243,0.30150,-1.04806,1.13071,-0.07453,0.04123,47.38380,15.74101,-2.42619,20,
1096172,26.85299,82176,2.94489,201.74699,1735.29220,9.18126,-1.47159,-0.29432,-2.64810,0.04154,0.19945,46.12686,-7.35165,9.57322,20,
1097523,26.81954,82085,2.88714,203.48599,1744.17820,9.41097,-0.04307,0.57428,-2.09160,0.03940,-0.01863,41.53756,35.99825,10.61093,20,
1098871,26.80565,81994,2.84287,203.73700,1753.26760,9.38226,1.25623,1.01934,-0.57238,-0.12217,-0.03207,39.53522,11.22479,-17.96258,20,
1100220,26.80660,81903,2.80318,202.61301,1762.26720,9.67657,0.68913,-1.05523,-1.36192,-0.20220,0.00886,38.11751,-19.61415,9.98246,20,
1101570,26.80976,81813,2.77675,202.24100,1771.27480,10.15035,0.47378,-0.81117,0.50060,-0.25992,0.04093,38.13213,-9.44168,31.55510,20,
1102918,26.79808,81724,2.72815,202.24100,1779.99430,9.13819,0.61735,0.37328,-2.00028,-0.20617,0.00794,42.86758,-10.88863,22.27419,20,
1104267,26.78325,81634,2.69277,202.36501,1788.91720,9.95653,0.29432,-1.73001,-0.32834,-0.04856,0.15180,46.63841,27.75504,7.08857,20,
1105654,26.76716,81543,2.66180,201.37801,1798.14930,9.36790,-0.09332,-0.13639,-0.11606,-0.11668,-0.07605,46.68225,28.48582,15.30254,20,
1107001,26.76021,81451,2.64413,201.25600,1807.08810,8.79362,0.48096,-0.88295,-1.61849,-0.16249,0.02107,44.69453,8.98860,-10.75709,20,
1108349,26.75611,81361,2.62648,201.62399,1815.93970,9.76989,-0.16510,-0.31585,1.36345,-0.06384,-0.00550,42.96989,-0.20462,-10.18708,20,
1109703,26.74696,81273,2.60440,200.64500,1824.59580,9.97089,-0.47378,0.32303,1.18599,0.02443,0.04856,39.21368,34.46361,28.14966,20,
1111055,26.72235,81188,2.56900,203.23599,1833.06430,10.34417,0.53121,-1.42134,2.06656,-0.09468,-0.04734,40.61678,-16.23794,2.09003,20,
1112402,26.69080,81101,2.55553,203.23599,1841.93440,9.61197,-1.11984,-3.27338,-5.19755,-0.15424,0.20983,38.86290,33.64513,29.23122,20,
1113751,26.68039,81011,2.54665,201.99400,1850.81510,9.56890,0.01436,-1.03370,-2.92910,-0.13408,0.08094,41.15755,19.32183,34.03975,20,
1115100,26.68165,80922,2.53787,201.62399,1859.80410,9.73400,0.40199,-0.81117,3.07846,0.01955,-0.13958,45.07454,-4.75007,23.75036,20,
1116452,26.66713,80831,2.53335,201.87000,1868.89880,9.64786,-0.54556,-1.40698,1.69118,-0.07880,0.07391,46.14148,26.87811,2.87928,20,
1117801,26.63653,80742,2.52430,204.11400,1877.80330,9.65504,0.68913,-0.89013,-2.31396,-0.16066,-0.02169,46.72610,22.30342,-3.91698,20,
1119150,26.61507,80651,2.49336,204.61900,1886.91650,9.43969,-0.71785,0.01436,-1.27396,-0.09591,0.18845,40.90909,-0.13154,34.53669,20,
1120498,26.60529,80561,2.48889,204.36600,1895.83680,9.50429,-0.72503,-1.22034,0.58277,0.10446,0.04643,34.93131,24.68576,39.79831,20,
1121854,26.58415,80471,2.46675,206.02200,1904.96580,9.85604,-0.58863,-0.91167,-1.36712,-0.04001,0.07422,34.69746,11.91172,43.61298,20,
1123236,26.53933,80379,2.44004,206.40800,1914.30370,9.74836,-0.24407,-0.24407,1.50090,-0.03268,0.12156,39.02368,22.43496,36.64133,20,
1124585,26.52766,80288,2.41801,207.05400,1923.24780,9.64068,-1.56491,-1.60080,-2.74889,-0.12889,0.08430,43.42298,28.06197,24.81730,20,
1125933,26.51977,80198,2.40040,208.09700,1932.30290,9.08076,0.96909,-0.23689,-2.54181,0.06261,-0.02413,48.01228,-2.67466,15.36100,20,
1127285,26.51031,80110,2.37401,209.14999,1941.26280,9.89911,1.97408,0.95474,-1.14446,-0.09896,-0.17593,46.90149,24.29114,17.72873,20,
1128634,26.50841,80022,2.35207,208.62199,1950.02990,9.38226,0.16510,0.36610,1.20890,-0.16677,-0.10873,42.54604,22.05495,-11.38556,20,
1129982,26.50557,79931,2.32575,209.28300,1959.30960,9.38944,-0.39482,-1.03370,2.42819,0.12645,0.07117,35.41362,11.26863,41.33294,20,
1131334,26.48538,79840,2.30368,210.34801,1968.29590,9.59761,-0.02154,-0.26560,-1.15484,-0.20097,-0.03054,37.72289,-20.34493,10.02631,20,
1132682,26.45824,79753,2.27281,210.75101,1977.08680,9.60479,-0.10768,-0.38046,-1.41354,-0.03146,0.18967,37.63520,37.75212,23.51652,20,
1134034,26.44309,79665,2.24643,208.88600,1986.08900,9.59761,-0.36610,-1.21316,1.85856,-0.09132,0.01038,42.03449,13.95791,36.18825,20,
1135382,26.41312,79575,2.23745,208.75400,1995.19950,9.95653,-0.12921,-1.20598,-3.00576,-0.20433,0.18479,46.21456,28.50044,13.44636,20,
1136734,26.39734,79487,2.23733,205.63800,2004.31800,10.16471,-0.69631,-0.27278,-0.20311,0.12706,0.12370,47.47150,-4.06314,8.34551,20,
1138082,26.38535,79397,2.22411,206.15100,2013.24370,9.49711,-0.22971,-1.03370,0.01466,0.00336,0.09255,43.99298,-10.33324,18.91260,20,
1139467,26.34118,79307,2.22815,209.81400,2022.58140,9.25305,0.15793,-1.04806,-0.59804,-0.16402,0.09163,40.39754,-17.39258,4.48699,20,
1140815,26.31498,79214,2.21483,208.75400,2031.82930,9.65504,-0.04307,-0.12921,-1.38758,-0.21014,0.06658,36.59749,-18.86875,24.42268,20,
1142166,26.31341,79125,2.21482,208.75400,2040.87920,9.20997,-0.17228,-0.99063,-1.27121,0.06658,0.23213,34.85823,27.30196,38.32213,20,
1143515,26.30236,79037,2.20599,209.41499,2049.73610,10.26521,-0.39482,-0.51685,-0.25840,-0.14508,0.18601,40.49986,25.27039,33.27974,20,
1144863,26.27649,78951,2.19705,208.88600,2058.59810,9.73400,0.72503,-0.72503,-0.73090,-0.19303,0.20647,45.70301,28.28120,13.37328,20,
1146216,26.25693,78863,2.17941,209.54800,2067.67460,9.59761,-1.23470,-0.05743,-1.94194,0.06842,0.19517,48.62613,2.14849,1.37387,20,
1147568,26.24052,78773,2.17492,210.34801,2076.65550,9.82732,-0.11486,0.14357,-1.10964,0.03207,-0.01741,44.10991,22.23034,27.37504,20,
1148916,26.22221,78686,2.17042,206.92500,2085.54420,9.26740,0.08614,-0.03589,0.51465,0.12737,-0.03054,41.37679,27.68196,29.05583,20,
1150264,26.21591,78600,2.17474,203.36099,2094.33760,10.19342,-0.96191,0.43071,-1.02748,0.06872,0.05895,39.90061,34.31745,26.11809,20,
1151612,26.20928,78515,2.18780,200.28000,2103.03590,9.37508,0.40199,-0.02154,0.33323,0.04215,-0.08369,40.26600,28.58813,-13.02251,20,
1152965,26.19603,78430,2.24017,195.54100,2111.74220,9.77707,-0.03589,0.01436,1.31703,-0.09438,0.01955,38.13213,-7.36627,33.98129,20,
1154314,26.17488,78343,2.30563,191.13200,2120.76560,9.72682,0.03589,-0.93320,-3.57356,-0.12645,0.08583,41.52295,36.52441,5.62701,20,
1155662,26.16258,78255,2.37559,187.12900,2129.89750,9.84886,0.73938,0.07178,-0.40409,-0.08613,-0.06750,44.95761,-3.62467,24.17422,20,
1157047,26.13860,78166,2.45864,185.77299,2139.24320,10.28674,-0.40917,0.78245,0.24984,0.11240,-0.02657,47.45689,-5.36393,11.94095,20,
1158403,26.12850,78072,2.55944,185.97800,2148.70240,9.23151,-0.22971,-1.14138,1.46180,0.04917,0.20617,45.93686,-7.93628,7.93628,20,
1159749,26.11115,77982,2.65149,185.86600,2157.75760,9.48276,-0.01436,-0.71785,-2.50119,-0.15608,0.10263,41.71295,-14.04560,5.61239,20,
1161098,26.09600,77893,2.73486,183.94400,2167.12960,9.84168,0.15793,0.66760,-1.26846,-0.02260,-0.03879,37.34288,42.06372,8.21397,20,
1162449,26.09032,77803,2.80959,183.54201,2176.51250,9.28894,-0.16510,1.07677,0.27672,0.09377,-0.03665,36.59749,39.66676,-5.65624,20,
1163798,26.06634,77712,2.88860,184.54900,2185.59380,9.80579,0.58146,-2.05304,2.13650,-0.05773,0.11637,37.70827,14.25022,39.60830,20,
1165147,26.03226,77627,2.95435,183.34200,2194.37160,9.79861,-0.45224,-0.83988,-4.28766,-0.08338,0.22938,44.62146,31.94972,7.58550,20,
1166495,26.01080,77542,3.03349,182.94299,2203.26270,10.26521,1.16291,-1.09831,-2.47889,-0.12248,0.04459,47.03303,15.63870,25.02192,20,
1167847,26.00418,77455,3.08196,182.74400,2212.05880,9.87039,0.68913,0.63171,1.87047,0.05223,-0.06231,46.79918,14.10406,26.67349,20,
1169200,25.99755,77369,3.13486,183.34200,2220.96340,9.82014,0.25842,-1.26341,2.57938,-0.08796,0.04246,43.78836,-5.86086,-5.32008,20,
1170548,25.96694,77284,3.18311,185.36301,2229.87840,9.11665,0.91167,-0.50249,-3.38450,-0.26053,0.08155,37.24057,-11.53172,-10.50862,20,
1171896,25.94296,77198,3.22262,187.12900,2238.90430,9.54736,-0.40917,0.87577,-2.04396,0.06322,0.00764,34.90208,38.49752,-8.81321,20,
1173283,25.91330,77110,3.23556,188.62399,2248.14700,10.02832,-0.29432,0.08614,0.32926,-0.05895,-0.17807,39.66676,-3.08389,-13.37328,20,
1174632,25.90762,77021,3.23550,190.58099,2257.39770,9.29612,-1.14855,0.61735,-0.15363,0.08827,0.09774,44.21222,26.23502,-5.59778,20,
1175981,25.88995,76932,3.20879,195.08000,2266.55320,10.20060,0.49531,-2.06740,1.57145,-0.08247,0.05315,46.36071,24.62730,17.90412,20,
1177329,25.85493,76846,3.17750,197.64600,2275.30180,9.03769,0.37328,0.35892,-2.34786,-0.22174,-0.00550,47.96843,24.48115,7.93628,20,
1178681,25.83252,76763,3.11988,201.13300,2284.15870,10.02832,-0.12203,0.66760,-1.04061,0.01527,0.18540,43.64221,-10.52324,18.45951,20,
1180030,25.82242,76676,3.07566,204.36600,2293.23750,9.65504,-0.17946,-0.34457,0.58796,-0.12859,0.09255,41.61064,-10.12862,-5.67086,20,
1181383,25.79308,76591,3.00483,206.27901,2302.00710,9.82732,0.28714,-0.93320,-1.86222,-0.25107,0.15149,38.97983,-18.72260,17.08565,20,
1182730,25.78424,76507,2.93867,207.70500,2310.78470,10.16471,-0.86142,-0.35892,-1.80938,0.04276,0.07086,39.18445,40.25139,10.26016,20,
1184081,25.77415,76422,2.86376,208.75400,2319.78170,9.64786,0.06461,0.35892,-0.90500,0.02016,-0.07544,42.75066,2.71850,-11.59018,20,
1185430,25.76500,76335,2.79771,209.54800,2328.88960,9.66940,-0.35174,-0.06461,0.49450,-0.04307,0.03604,45.93686,4.92546,-7.92166,20,
1186779,25.75837,76246,2.73175,211.69501,2338.21680,8.98026,-2.23968,-1.67976,2.30724,0.00947,0.11026,47.26688,18.53259,-2.00234,20,
1188130,25.73186,76158,2.67004,213.47200,2347.34330,9.33919,-0.45224,-1.10548,-3.13771,-0.34331,0.00855,47.22303,26.67349,7.27857,20,
1189516,25.68706,76071,2.60384,214.72000,2356.58330,10.13600,0.67478,-0.21535,-2.18507,0.01374,0.03604,41.58141,15.53639,35.54516,20,
1190864,25.67223,75983,2.53797,214.86000,2366.04000,9.18126,0.68195,0.71067,0.67714,0.04520,-0.07880,36.02748,33.07512,34.53669,20,
1192214,25.65866,75892,2.48530,217.11800,2375.50730,9.80579,1.31366,-2.39043,2.88298,-0.11515,-0.01894,34.65361,-13.78252,32.75358,20,
1193570,25.62900,75803,2.42816,218.55299,2384.87940,9.63350,0.99781,-1.43569,-4.63219,-0.18173,0.28283,38.74598,19.48261,38.32213,20,
1194916,25.60786,75715,2.37113,218.69800,2394.36250,9.45404,0.15793,-0.39482,-1.55099,-0.11270,-0.16463,45.68840,-8.59398,7.64396,20,
1196265,25.60154,75624,2.32301,216.97501,2403.75320,9.49711,-0.20100,0.58863,-0.18295,0.21930,0.04917,47.00380,-0.39462,23.86729,20,
1197613,25.59965,75532,2.27931,217.26100,2413.25760,8.66441,-0.02154,-0.66760,1.89949,0.04948,0.06750,45.48378,-6.29933,23.61882,20,
1198965,25.58956,75446,2.23121,218.98801,2422.34690,10.12882,1.14138,0.27278,-3.05463,0.02352,0.01222,44.65068,-2.89389,27.82812,20,
1200314,25.56021,75364,2.18300,221.33400,2430.81010,9.93500,-0.04307,-0.33021,-0.27336,-0.19395,-0.05528,44.08068,28.88044,-2.14849,20,
1201662,25.54506,75286,2.15236,219.86200,2439.06980,9.90629,0.63888,-1.93819,-4.01430,-0.28558,0.09591,41.28910,-16.39871,16.60333,20,
1203011,25.53875,75206,2.11309,219.13300,2447.86330,9.99243,0.40917,-0.83988,-0.79382,-0.11423,0.09194,38.35136,20.60801,38.68752,20,
1204364,25.52708,75118,2.06508,219.71500,2457.19850,9.75554,-0.25842,-0.04307,-0.93462,-0.07727,0.01863,40.28062,35.32593,-3.65390,20,
1205714,25.49647,75031,2.04310,221.03799,2466.22190,9.19562,-0.26560,0.02871,3.51858,0.04643,0.08735,39.44753,36.34902,23.42882,20,
1207114,25.43967,74948,1.99484,221.63000,2475.14750,9.79143,-0.33739,-1.07677,2.39490,-0.09102,0.13164,44.50453,17.72873,31.43818,20,
1208462,25.40307,74864,1.98154,220.44800,2484.08350,9.92782,-2.16072,-0.17946,-4.97641,0.08766,0.11942,48.68459,-1.44695,3.91698,20,
1209815,25.39424,74778,1.95974,219.42400,2493.23900,10.20778,-0.57428,-1.58644,-1.38666,0.01985,0.16616,46.88688,-7.32242,16.32564,20,
1211163,25.40591,74692,1.94677,217.26100,2502.50830,9.42533,0.24407,-0.68913,1.95935,-0.01863,-0.13867,41.62526,33.83514,-3.62467,20,
1212512,25.38161,74603,1.92923,214.58099,2512.21580,9.48993,-0.00718,-0.79681,-3.79225,-0.14539,0.03024,37.57673,5.37854,-18.94183,20,
1213860,25.35132,74511,1.93338,213.19701,2521.93160,9.10948,0.02154,0.24407,-1.42973,-0.04734,0.15944,35.74978,40.98217,-3.91698,20,
